,LineNumber,Accel_X,Accel_Y,Accel_Z,Velocity,RealTime,Label
0,30,0.26,0.09,-0.3,0.0,2022-03-04 10:20:35.290,0
1,50,-0.18,0.14,-0.28,0.0,2022-03-04 10:20:35.390,0
2,70,0.37,0.1,-0.32,0.0,2022-03-04 10:20:35.495,0
3,92,0.36,-0.24,-0.33,0.0,2022-03-04 10:20:35.588,0
4,114,-0.18,0.12,-0.39,0.0,2022-03-04 10:20:35.699,0
5,134,-0.28,-0.07,-0.23,0.0,2022-03-04 10:20:35.798,0
6,154,0.13,0.09,-0.25,0.0,2022-03-04 10:20:35.896,0
7,174,-0.2,0.08,-0.3,0.0,2022-03-04 10:20:35.995,0
8,194,0.16,-0.07,-0.38,0.0,2022-03-04 10:20:36.094,0
9,214,-0.19,0.09,-0.39,0.0,2022-03-04 10:20:36.195,0
10,238,-0.22,0.06,-0.29,0.0,2022-03-04 10:20:36.294,0
11,258,0.1,0.14,-0.32,0.0,2022-03-04 10:20:36.392,0
12,278,-0.25,0.11,-0.21,0.0,2022-03-04 10:20:36.492,0
13,300,0.16,-0.11,-0.4,0.0,2022-03-04 10:20:36.591,0
14,320,-0.21,0.12,-0.44,0.0,2022-03-04 10:20:36.690,0
15,340,0.15,-0.15,-0.39,0.0,2022-03-04 10:20:36.790,0
16,360,-0.2,0.12,-0.42,0.0,2022-03-04 10:20:36.889,0
17,382,-0.23,-0.09,-0.22,0.0,2022-03-04 10:20:36.999,0
18,402,0.16,0.05,-0.29,0.0,2022-03-04 10:20:37.099,0
19,426,-0.14,0.09,-0.35,0.0,2022-03-04 10:20:37.198,0
20,446,0.38,-0.25,-0.41,0.0,2022-03-04 10:20:37.296,0
21,466,-0.24,-0.15,-0.31,0.0,2022-03-04 10:20:37.395,0
22,486,-0.19,0.27,-0.36,0.0,2022-03-04 10:20:37.494,0
23,508,0.32,-0.18,-0.28,0.0,2022-03-04 10:20:37.594,0
24,528,-0.21,0.34,-0.32,0.0,2022-03-04 10:20:37.693,0
25,548,-0.3,0.53,-1.01,0.0,2022-03-04 10:20:37.792,0
26,568,-0.15,-0.09,-0.29,0.0,2022-03-04 10:20:37.891,0
27,588,-0.18,-0.2,-0.31,0.0,2022-03-04 10:20:37.990,0
28,608,0.25,0.11,-0.32,0.0,2022-03-04 10:20:38.090,0
29,628,-0.24,0.17,-0.24,0.0,2022-03-04 10:20:38.189,0
30,654,-0.25,0.1,-0.27,0.0,2022-03-04 10:20:38.298,0
31,674,-0.24,-0.1,-0.26,0.0,2022-03-04 10:20:38.398,0
32,694,0.24,0.1,-0.29,0.0,2022-03-04 10:20:38.497,0
33,716,0.29,0.11,-0.34,0.0,2022-03-04 10:20:38.598,1
34,736,-0.21,0.08,-0.31,0.0,2022-03-04 10:20:38.697,1
35,756,0.23,0.15,-0.31,0.0,2022-03-04 10:20:38.794,1
36,776,0.22,0.38,-0.34,0.0,2022-03-04 10:20:38.894,1
37,796,-0.41,0.79,-0.34,0.0,2022-03-04 10:20:38.997,1
38,816,-0.42,0.89,-0.42,0.0,2022-03-04 10:20:39.094,1
39,836,0.51,1.12,-0.37,0.0,2022-03-04 10:20:39.191,1
40,860,-0.48,1.2,-0.49,0.0,2022-03-04 10:20:39.291,1
41,880,0.44,1.48,-0.51,0.0,2022-03-04 10:20:39.390,1
42,902,-0.53,1.46,0.43,0.0,2022-03-04 10:20:39.499,1
43,922,-0.6,1.53,-0.38,0.0,2022-03-04 10:20:39.588,1
44,944,-0.98,2.14,0.74,0.0,2022-03-04 10:20:39.698,1
45,964,-0.96,3.03,-0.92,0.0,2022-03-04 10:20:39.798,1
46,984,-0.89,3.06,-1.32,0.0,2022-03-04 10:20:39.896,1
47,1004,-0.73,3.3,-1.21,0.0,2022-03-04 10:20:39.996,1
48,1024,-0.76,3.12,-1.45,0.0,2022-03-04 10:20:40.096,1
49,1048,-1.0,3.35,-1.57,0.0,2022-03-04 10:20:40.197,1
50,1068,-0.78,2.84,-1.74,0.0,2022-03-04 10:20:40.293,1
51,1088,-0.56,2.9,1.84,0.0,2022-03-04 10:20:40.393,1
52,1108,-0.85,2.0,1.07,0.0,2022-03-04 10:20:40.492,1
53,1130,-1.29,2.41,-1.07,0.0,2022-03-04 10:20:40.591,1
54,1150,-1.25,2.52,-1.21,0.0,2022-03-04 10:20:40.690,1
55,1170,-0.57,2.36,-1.19,0.0,2022-03-04 10:20:40.790,1
56,1192,-0.85,1.33,-0.57,0.0,2022-03-04 10:20:40.899,1
57,1210,0.37,0.84,-0.26,0.0,2022-03-04 10:20:40.988,1
58,1232,-0.42,1.7,-0.52,0.0,2022-03-04 10:20:41.098,1
59,1256,0.58,1.68,0.59,8.6,2022-03-04 10:20:41.198,1
60,1276,0.53,0.93,0.28,8.6,2022-03-04 10:20:41.296,1
61,1296,-0.81,1.26,-0.57,8.6,2022-03-04 10:20:41.396,1
62,1316,-1.03,1.84,-0.77,8.6,2022-03-04 10:20:41.495,1
63,1338,-0.67,1.64,-0.52,8.6,2022-03-04 10:20:41.595,1
64,1358,-0.6,0.95,-0.85,8.6,2022-03-04 10:20:41.695,1
65,1378,-0.85,1.5,0.85,8.6,2022-03-04 10:20:41.794,1
66,1398,-0.79,2.17,0.62,8.6,2022-03-04 10:20:41.891,1
67,1418,-0.83,2.27,-0.98,8.6,2022-03-04 10:20:41.991,1
68,1438,-0.64,1.57,-0.73,8.6,2022-03-04 10:20:42.090,1
69,1462,-0.42,1.24,-0.75,17.3,2022-03-04 10:20:42.190,1
70,1482,-0.68,1.55,-0.56,17.3,2022-03-04 10:20:42.291,1
71,1504,-0.67,1.56,-0.84,17.3,2022-03-04 10:20:42.398,1
72,1524,-0.7,1.26,-0.59,17.3,2022-03-04 10:20:42.498,1
73,1546,0.64,1.1,-0.49,17.3,2022-03-04 10:20:42.599,1
74,1566,-1.05,1.37,-0.72,17.3,2022-03-04 10:20:42.697,1
75,1586,-1.23,1.34,-1.06,17.3,2022-03-04 10:20:42.797,1
76,1606,-0.96,1.19,0.89,17.3,2022-03-04 10:20:42.896,1
77,1626,1.03,0.89,1.27,17.3,2022-03-04 10:20:42.994,1
78,1646,-1.01,0.96,-1.72,17.3,2022-03-04 10:20:43.094,1
79,1670,-0.68,1.17,1.27,22.3,2022-03-04 10:20:43.195,1
80,1690,-1.25,0.88,1.03,22.3,2022-03-04 10:20:43.294,1
81,1710,-0.9,1.01,-1.37,22.3,2022-03-04 10:20:43.390,1
82,1732,-0.79,-0.92,0.84,22.3,2022-03-04 10:20:43.499,1
83,1754,0.55,-1.04,-0.6,22.3,2022-03-04 10:20:43.599,1
84,1774,0.79,-0.81,-0.85,22.3,2022-03-04 10:20:43.699,1
85,1794,0.62,-0.77,1.08,22.3,2022-03-04 10:20:43.797,1
86,1814,-0.78,-0.56,-0.55,22.3,2022-03-04 10:20:43.897,1
87,1834,-0.6,-0.74,0.26,22.3,2022-03-04 10:20:43.997,1
88,1854,0.76,-0.69,0.42,22.3,2022-03-04 10:20:44.096,1
89,1878,1.04,-0.8,-0.66,24.1,2022-03-04 10:20:44.195,1
90,1898,-0.48,-1.02,-0.91,24.1,2022-03-04 10:20:44.295,1
91,1918,0.63,-0.74,-0.68,24.1,2022-03-04 10:20:44.393,1
92,1938,-0.56,-0.72,0.76,24.1,2022-03-04 10:20:44.494,1
93,1960,0.68,0.66,0.83,24.1,2022-03-04 10:20:44.594,1
94,1980,-0.4,0.8,-0.71,24.1,2022-03-04 10:20:44.695,1
95,2000,0.68,0.79,-0.94,24.1,2022-03-04 10:20:44.791,1
96,2022,-0.71,1.26,-0.95,24.1,2022-03-04 10:20:44.899,1
97,2042,-0.74,1.32,-1.0,24.1,2022-03-04 10:20:44.998,1
98,2062,0.93,0.48,-0.78,24.1,2022-03-04 10:20:45.097,1
99,2086,-0.83,0.85,0.99,27.7,2022-03-04 10:20:45.197,1
100,2106,-1.14,0.7,1.27,27.7,2022-03-04 10:20:45.296,1
101,2126,0.7,0.95,-0.85,27.7,2022-03-04 10:20:45.396,1
102,2146,0.46,0.94,-1.06,27.7,2022-03-04 10:20:45.496,1
103,2168,-0.56,0.67,-0.95,27.7,2022-03-04 10:20:45.594,1
104,2188,-0.51,1.19,1.06,27.7,2022-03-04 10:20:45.694,1
105,2208,1.06,0.82,-1.67,27.7,2022-03-04 10:20:45.793,1
106,2228,-1.16,1.3,-1.27,27.7,2022-03-04 10:20:45.892,1
107,2248,-0.78,0.73,1.35,27.7,2022-03-04 10:20:45.993,1
108,2268,1.37,1.23,1.72,27.7,2022-03-04 10:20:46.095,1
109,2292,-1.1,1.25,-1.31,32.0,2022-03-04 10:20:46.191,1
110,2314,0.73,-0.49,-1.41,32.0,2022-03-04 10:20:46.299,1
111,2334,0.54,0.43,0.69,32.0,2022-03-04 10:20:46.398,1
112,2354,0.71,-0.35,1.15,32.0,2022-03-04 10:20:46.498,1
113,2376,0.57,0.43,-0.8,32.0,2022-03-04 10:20:46.596,1
114,2396,-0.68,0.29,1.18,32.0,2022-03-04 10:20:46.696,1
115,2416,-0.68,-0.35,0.84,32.0,2022-03-04 10:20:46.796,1
116,2436,0.47,0.22,-1.07,32.0,2022-03-04 10:20:46.894,1
117,2456,0.71,-0.33,-0.55,32.0,2022-03-04 10:20:46.994,1
118,2476,0.69,0.34,1.06,32.0,2022-03-04 10:20:47.094,1
119,2500,-0.72,-0.46,-1.1,34.6,2022-03-04 10:20:47.192,1
120,2520,0.69,0.3,-1.51,34.6,2022-03-04 10:20:47.294,1
121,2540,-0.65,0.5,-0.83,34.6,2022-03-04 10:20:47.392,1
122,2560,0.74,-0.31,0.97,34.6,2022-03-04 10:20:47.491,1
123,2584,1.86,-1.63,0.74,34.6,2022-03-04 10:20:47.599,1
124,2604,-1.59,-0.74,-1.22,34.6,2022-03-04 10:20:47.698,1
125,2624,0.96,-0.73,-1.03,34.6,2022-03-04 10:20:47.798,1
126,2644,-0.95,-1.2,-1.91,34.6,2022-03-04 10:20:47.897,1
127,2664,0.62,-0.55,-1.34,34.6,2022-03-04 10:20:47.996,1
128,2684,0.88,-0.68,0.88,34.6,2022-03-04 10:20:48.099,1
129,2708,0.78,-1.03,0.59,36.7,2022-03-04 10:20:48.195,1
130,2728,0.59,-1.08,0.87,36.7,2022-03-04 10:20:48.294,1
131,2748,0.34,-0.95,0.66,36.7,2022-03-04 10:20:48.395,1
132,2768,0.52,-1.14,0.79,36.7,2022-03-04 10:20:48.493,1
133,2790,0.72,-0.84,-0.73,36.7,2022-03-04 10:20:48.592,1
134,2810,0.57,-0.86,0.57,36.7,2022-03-04 10:20:48.692,1
135,2830,0.82,-0.81,-0.7,36.7,2022-03-04 10:20:48.790,1
136,2852,0.67,-1.59,-1.08,36.7,2022-03-04 10:20:48.899,1
137,2872,0.95,-0.95,0.56,36.7,2022-03-04 10:20:48.998,1
138,2892,1.11,-0.92,-0.64,36.7,2022-03-04 10:20:49.098,1
139,2916,0.62,-0.96,-0.9,37.1,2022-03-04 10:20:49.198,1
140,2936,1.12,-1.21,0.5,37.1,2022-03-04 10:20:49.297,1
141,2956,-1.19,-0.81,0.99,37.1,2022-03-04 10:20:49.395,1
142,2976,-0.51,-0.65,0.57,37.1,2022-03-04 10:20:49.495,1
143,2998,-0.56,-0.55,-0.33,37.1,2022-03-04 10:20:49.594,1
144,3018,-0.67,-0.35,-0.3,37.1,2022-03-04 10:20:49.694,1
145,3038,0.47,-0.74,-0.8,37.1,2022-03-04 10:20:49.793,1
146,3058,-0.46,-0.93,-0.62,37.1,2022-03-04 10:20:49.893,1
147,3078,-0.73,-0.56,-0.87,37.1,2022-03-04 10:20:49.992,1
148,3098,-0.83,-0.89,0.86,37.1,2022-03-04 10:20:50.091,1
149,3124,-0.77,-0.65,-0.7,38.2,2022-03-04 10:20:50.199,1
150,3144,-0.66,-0.66,0.75,38.2,2022-03-04 10:20:50.299,1
151,3164,0.7,-0.54,-0.5,38.2,2022-03-04 10:20:50.399,1
152,3184,0.65,-0.62,-1.28,38.2,2022-03-04 10:20:50.498,1
153,3206,-0.6,-0.65,-0.87,38.2,2022-03-04 10:20:50.597,1
154,3226,-0.93,-0.55,-0.49,38.2,2022-03-04 10:20:50.696,1
155,3246,-1.22,-0.45,-0.62,38.2,2022-03-04 10:20:50.795,1
156,3266,0.87,-0.58,-0.7,38.2,2022-03-04 10:20:50.894,1
157,3286,-0.97,-0.62,-0.67,38.2,2022-03-04 10:20:50.994,1
158,3306,1.22,-0.61,-0.69,38.2,2022-03-04 10:20:51.094,1
159,3330,-1.22,-0.54,-1.15,39.2,2022-03-04 10:20:51.193,1
160,3350,-0.61,-0.49,1.24,39.2,2022-03-04 10:20:51.292,1
161,3370,-0.73,-0.6,-1.07,39.2,2022-03-04 10:20:51.392,1
162,3390,-1.04,-0.64,-0.7,39.2,2022-03-04 10:20:51.492,1
163,3414,0.89,-0.55,-0.49,39.2,2022-03-04 10:20:51.599,1
164,3434,-0.78,-0.53,-0.42,39.2,2022-03-04 10:20:51.699,1
165,3454,0.77,-0.52,-0.92,39.2,2022-03-04 10:20:51.799,1
166,3474,0.79,-0.55,0.48,39.2,2022-03-04 10:20:51.897,1
167,3494,0.71,-0.64,-0.58,39.2,2022-03-04 10:20:51.997,1
168,3514,0.98,-0.26,-0.99,39.2,2022-03-04 10:20:52.098,1
169,3538,0.56,-0.39,-1.23,40.3,2022-03-04 10:20:52.195,1
170,3558,1.14,-0.37,1.06,40.3,2022-03-04 10:20:52.295,1
171,3578,0.61,0.27,-1.06,40.3,2022-03-04 10:20:52.394,1
172,3598,0.95,-0.51,0.95,40.3,2022-03-04 10:20:52.493,1
173,3620,0.96,0.28,0.92,40.3,2022-03-04 10:20:52.592,1
174,3640,0.75,-0.5,-1.0,40.3,2022-03-04 10:20:52.692,1
175,3660,-1.16,-0.41,0.66,40.3,2022-03-04 10:20:52.791,1
176,3680,1.2,-0.45,-0.82,40.3,2022-03-04 10:20:52.890,1
177,3702,0.73,-0.27,-0.89,40.3,2022-03-04 10:20:52.999,1
178,3720,0.93,-0.45,-0.55,40.3,2022-03-04 10:20:53.090,1
179,3742,0.71,-0.25,1.07,40.3,2022-03-04 10:20:53.197,1
180,3766,-0.6,0.33,-0.69,41.8,2022-03-04 10:20:53.297,1
181,3786,0.72,0.37,0.67,41.8,2022-03-04 10:20:53.396,1
182,3806,-1.23,-0.53,0.52,41.8,2022-03-04 10:20:53.495,1
183,3828,-1.36,-0.36,-0.91,41.8,2022-03-04 10:20:53.596,1
184,3848,1.73,-0.45,-1.45,41.8,2022-03-04 10:20:53.694,1
185,3868,-1.72,-0.35,-0.94,41.8,2022-03-04 10:20:53.794,1
186,3888,1.31,-0.44,-0.82,41.8,2022-03-04 10:20:53.893,1
187,3908,-0.6,-0.37,-0.61,41.8,2022-03-04 10:20:53.991,1
188,3928,1.74,-0.46,-0.81,41.8,2022-03-04 10:20:54.091,1
189,3950,-1.6,0.32,1.5,42.8,2022-03-04 10:20:54.192,1
190,3972,0.71,0.3,-0.8,42.8,2022-03-04 10:20:54.289,1
191,3994,0.77,0.55,-0.85,42.8,2022-03-04 10:20:54.398,1
192,4014,-0.79,-0.44,-0.99,42.8,2022-03-04 10:20:54.498,1
193,4036,-0.77,-0.29,0.85,42.8,2022-03-04 10:20:54.597,1
194,4056,-1.21,0.36,-1.04,42.8,2022-03-04 10:20:54.696,1
195,4076,-1.35,-0.65,-1.88,42.8,2022-03-04 10:20:54.795,1
196,4096,0.81,-0.41,-1.31,42.8,2022-03-04 10:20:54.896,1
197,4116,-0.79,-0.65,1.08,42.8,2022-03-04 10:20:54.994,1
198,4136,1.23,-0.46,-1.08,42.8,2022-03-04 10:20:55.094,1
199,4160,-0.85,0.52,-1.32,43.6,2022-03-04 10:20:55.193,1
200,4180,-0.71,-0.48,-0.82,43.6,2022-03-04 10:20:55.292,1
201,4200,-0.68,-0.46,-0.55,43.6,2022-03-04 10:20:55.391,1
202,4220,-0.53,0.48,-0.92,43.6,2022-03-04 10:20:55.491,1
203,4244,-0.99,0.3,-0.65,43.6,2022-03-04 10:20:55.599,1
204,4262,-0.56,0.35,0.58,43.6,2022-03-04 10:20:55.689,1
205,4284,-1.35,0.61,0.71,43.6,2022-03-04 10:20:55.798,1
206,4304,-0.52,0.53,-1.5,43.6,2022-03-04 10:20:55.897,1
207,4324,-1.13,-0.47,-0.86,43.6,2022-03-04 10:20:55.997,1
208,4344,0.86,-0.45,-1.04,43.6,2022-03-04 10:20:56.099,1
209,4368,0.95,-0.7,-1.55,44.6,2022-03-04 10:20:56.196,10
210,4388,-0.98,-0.49,0.7,44.6,2022-03-04 10:20:56.294,10
211,4408,0.87,-0.39,1.15,44.6,2022-03-04 10:20:56.394,10
212,4428,1.07,-0.88,-1.36,44.6,2022-03-04 10:20:56.493,10
213,4450,-0.88,-1.04,-1.68,44.6,2022-03-04 10:20:56.593,10
214,4470,0.95,-1.03,-1.11,44.6,2022-03-04 10:20:56.695,10
215,4490,0.6,-0.67,-1.0,44.6,2022-03-04 10:20:56.791,10
216,4510,0.6,-0.86,-1.01,44.6,2022-03-04 10:20:56.891,10
217,4532,1.09,-0.84,0.69,44.6,2022-03-04 10:20:56.999,10
218,4550,-0.49,-0.86,-1.29,44.6,2022-03-04 10:20:57.090,10
219,4572,1.14,-0.7,-0.86,45.0,2022-03-04 10:20:57.190,10
220,4596,1.32,-1.54,1.87,45.0,2022-03-04 10:20:57.297,10
221,4616,-0.67,-0.98,1.41,45.0,2022-03-04 10:20:57.397,10
222,4636,-1.06,-0.72,-1.06,45.0,2022-03-04 10:20:57.496,10
223,4658,0.86,-0.81,-2.14,45.0,2022-03-04 10:20:57.595,10
224,4678,-1.83,-0.75,-2.05,45.0,2022-03-04 10:20:57.694,10
225,4698,0.51,-0.34,-1.41,45.0,2022-03-04 10:20:57.794,10
226,4718,1.1,0.52,-1.93,45.0,2022-03-04 10:20:57.893,10
227,4738,-0.64,0.84,-1.08,45.0,2022-03-04 10:20:57.994,10
228,4758,0.98,0.94,-1.75,45.0,2022-03-04 10:20:58.091,10
229,4780,-1.09,0.48,-1.06,45.7,2022-03-04 10:20:58.194,10
230,4802,0.91,-0.51,-1.03,45.7,2022-03-04 10:20:58.290,10
231,4824,1.14,0.43,-1.06,45.7,2022-03-04 10:20:58.399,10
232,4844,1.09,-0.51,0.85,45.7,2022-03-04 10:20:58.498,10
233,4866,-0.88,-0.62,-0.95,45.7,2022-03-04 10:20:58.598,10
234,4886,-0.52,-0.67,-1.06,45.7,2022-03-04 10:20:58.698,10
235,4906,-1.15,-0.82,1.71,45.7,2022-03-04 10:20:58.796,10
236,4926,-0.83,-0.86,1.04,45.7,2022-03-04 10:20:58.895,10
237,4946,-0.53,-0.74,-1.09,45.7,2022-03-04 10:20:58.994,10
238,4966,-0.54,-1.29,0.99,45.7,2022-03-04 10:20:59.094,10
239,4990,-1.13,-1.21,-0.76,46.1,2022-03-04 10:20:59.195,10
240,5010,0.71,-0.77,-0.68,46.1,2022-03-04 10:20:59.293,10
241,5030,0.67,-0.66,-0.72,46.1,2022-03-04 10:20:59.391,10
242,5050,-0.42,-0.69,-1.19,46.1,2022-03-04 10:20:59.491,10
243,5072,-0.8,-0.79,-1.66,46.1,2022-03-04 10:20:59.590,10
244,5092,-0.72,-0.63,0.71,46.1,2022-03-04 10:20:59.689,10
245,5112,0.32,-0.85,-0.92,46.1,2022-03-04 10:20:59.790,4
246,5132,0.93,-0.65,-0.97,46.1,2022-03-04 10:20:59.888,4
247,5154,-1.58,-0.83,-1.0,46.1,2022-03-04 10:20:59.999,4
248,5174,1.66,-1.05,-1.22,46.1,2022-03-04 10:21:00.097,4
249,5194,1.3,-1.29,-1.56,46.1,2022-03-04 10:21:00.196,4
250,5218,-0.83,-1.16,1.06,46.1,2022-03-04 10:21:00.295,4
251,5238,1.29,-1.05,1.0,45.7,2022-03-04 10:21:00.394,4
252,5258,-1.05,-1.11,-1.0,45.7,2022-03-04 10:21:00.494,4
253,5280,0.61,-1.24,-1.08,45.7,2022-03-04 10:21:00.593,4
254,5300,0.6,-1.38,-1.05,45.7,2022-03-04 10:21:00.692,4
255,5320,0.7,-1.53,-1.24,45.7,2022-03-04 10:21:00.791,4
256,5340,0.85,-1.3,-1.31,45.7,2022-03-04 10:21:00.891,4
257,5362,1.12,-1.23,-0.83,45.7,2022-03-04 10:21:00.999,4
258,5380,0.98,-1.5,-1.22,45.7,2022-03-04 10:21:01.092,4
259,5406,0.56,-1.55,-1.32,45.7,2022-03-04 10:21:01.199,4
260,5426,0.61,-1.34,-0.75,43.6,2022-03-04 10:21:01.298,4
261,5446,1.07,-1.33,-0.82,43.6,2022-03-04 10:21:01.396,4
262,5466,0.98,-1.23,0.84,43.6,2022-03-04 10:21:01.496,4
263,5488,0.5,-1.17,-0.7,43.6,2022-03-04 10:21:01.596,4
264,5508,1.13,-1.31,-0.54,43.6,2022-03-04 10:21:01.695,4
265,5528,0.63,-1.1,0.62,43.6,2022-03-04 10:21:01.794,4
266,5548,0.49,-1.11,-0.64,43.6,2022-03-04 10:21:01.893,4
267,5568,1.09,-1.19,-1.2,43.6,2022-03-04 10:21:01.992,4
268,5588,0.89,-1.34,-0.59,43.6,2022-03-04 10:21:02.094,4
269,5610,0.6,-1.28,-0.71,43.6,2022-03-04 10:21:02.192,4
270,5632,0.69,-1.28,-0.42,41.0,2022-03-04 10:21:02.290,4
271,5652,0.67,-1.3,0.86,41.0,2022-03-04 10:21:02.392,4
272,5674,0.92,-1.31,-0.85,41.0,2022-03-04 10:21:02.499,4
273,5696,0.8,-1.24,-0.35,41.0,2022-03-04 10:21:02.599,4
274,5716,0.67,-1.16,-0.88,41.0,2022-03-04 10:21:02.698,4
275,5734,0.36,-1.22,-0.73,41.0,2022-03-04 10:21:02.787,4
276,5756,0.86,-1.31,-0.93,41.0,2022-03-04 10:21:02.896,4
277,5776,0.78,-1.29,-0.77,41.0,2022-03-04 10:21:02.995,4
278,5796,0.56,-1.25,0.64,41.0,2022-03-04 10:21:03.094,4
279,5820,1.1,-1.3,-0.75,41.0,2022-03-04 10:21:03.194,4
280,5840,0.98,-1.51,0.94,38.2,2022-03-04 10:21:03.293,4
281,5860,0.81,-1.29,0.39,38.2,2022-03-04 10:21:03.392,4
282,5880,1.02,-1.33,0.59,38.2,2022-03-04 10:21:03.491,4
283,5902,1.34,-1.5,-0.49,38.2,2022-03-04 10:21:03.591,4
284,5922,1.18,-1.39,0.92,38.2,2022-03-04 10:21:03.690,4
285,5944,1.01,-1.38,-0.87,38.2,2022-03-04 10:21:03.799,4
286,5962,1.3,-1.55,0.54,38.2,2022-03-04 10:21:03.888,4
287,5984,1.22,-1.47,0.57,38.2,2022-03-04 10:21:03.999,4
288,6004,1.29,-1.37,-0.49,38.2,2022-03-04 10:21:04.097,4
289,6028,2.02,-1.34,-0.51,38.2,2022-03-04 10:21:04.198,4
290,6048,1.79,-1.3,-0.55,33.8,2022-03-04 10:21:04.295,4
291,6068,1.47,-1.26,0.82,33.8,2022-03-04 10:21:04.394,4
292,6088,1.86,-1.43,-0.51,33.8,2022-03-04 10:21:04.494,7
293,6110,2.2,-1.27,0.55,33.8,2022-03-04 10:21:04.594,7
294,6130,1.3,-1.39,-0.54,33.8,2022-03-04 10:21:04.692,7
295,6150,1.24,-1.29,-0.66,33.8,2022-03-04 10:21:04.791,7
296,6170,1.28,-1.23,-1.1,33.8,2022-03-04 10:21:04.890,7
297,6190,1.29,-1.21,-0.58,33.8,2022-03-04 10:21:04.990,7
298,6210,0.84,-1.26,-0.74,33.8,2022-03-04 10:21:05.089,7
299,6232,-0.74,-1.38,0.45,33.8,2022-03-04 10:21:05.193,7
300,6256,-0.61,-1.26,0.7,28.8,2022-03-04 10:21:05.299,7
301,6276,-0.71,-1.23,-0.54,28.8,2022-03-04 10:21:05.398,7
302,6296,-0.76,-1.15,-0.81,28.8,2022-03-04 10:21:05.499,7
303,6318,-0.95,-1.09,-0.42,28.8,2022-03-04 10:21:05.596,7
304,6338,-1.04,-1.02,0.36,28.8,2022-03-04 10:21:05.697,7
305,6358,-1.39,-0.91,-0.53,28.8,2022-03-04 10:21:05.794,7
306,6378,-1.64,-0.81,-0.72,28.8,2022-03-04 10:21:05.893,7
307,6398,-1.68,-0.68,-0.78,28.8,2022-03-04 10:21:05.993,7
308,6418,-1.62,-0.43,0.62,28.8,2022-03-04 10:21:06.093,7
309,6442,-1.9,-0.61,1.2,28.8,2022-03-04 10:21:06.191,7
310,6462,-2.59,-0.64,0.77,24.5,2022-03-04 10:21:06.290,7
311,6484,-2.59,-0.66,0.58,24.5,2022-03-04 10:21:06.399,7
312,6504,-2.54,-0.64,-0.42,24.5,2022-03-04 10:21:06.499,7
313,6526,-2.65,-0.46,-0.9,24.5,2022-03-04 10:21:06.599,7
314,6546,-2.87,-0.72,0.48,24.5,2022-03-04 10:21:06.697,7
315,6566,-2.18,-0.44,0.52,24.5,2022-03-04 10:21:06.797,7
316,6586,-2.55,-0.4,-0.38,24.5,2022-03-04 10:21:06.897,7
317,6606,-2.38,-0.37,0.29,24.5,2022-03-04 10:21:06.996,7
318,6626,-2.51,-0.26,0.45,24.5,2022-03-04 10:21:07.096,7
319,6650,-2.61,-0.27,-0.52,24.5,2022-03-04 10:21:07.195,7
320,6670,-2.91,-0.25,0.34,24.5,2022-03-04 10:21:07.293,7
321,6690,-3.14,-0.29,-0.7,24.5,2022-03-04 10:21:07.393,7
322,6710,-3.12,-0.33,-0.75,24.5,2022-03-04 10:21:07.491,7
323,6732,-2.85,-0.41,0.51,24.5,2022-03-04 10:21:07.591,7
324,6752,-3.47,-0.73,-0.43,24.5,2022-03-04 10:21:07.690,7
325,6774,-3.62,-0.72,0.69,24.5,2022-03-04 10:21:07.799,7
326,6794,-3.18,-0.86,0.64,24.5,2022-03-04 10:21:07.899,7
327,6814,-3.07,-0.75,0.4,24.5,2022-03-04 10:21:07.999,7
328,6832,-3.32,-0.88,-0.28,24.5,2022-03-04 10:21:08.087,7
329,6858,-3.42,-0.71,-0.81,24.5,2022-03-04 10:21:08.196,7
330,6878,-2.86,-0.81,0.55,21.2,2022-03-04 10:21:08.296,7
331,6898,-2.87,-0.82,0.51,21.2,2022-03-04 10:21:08.396,7
332,6918,-2.96,-0.83,0.41,21.2,2022-03-04 10:21:08.497,7
333,6940,-2.78,-0.85,-0.59,21.2,2022-03-04 10:21:08.594,7
334,6960,-2.7,-1.03,-0.86,21.2,2022-03-04 10:21:08.693,7
335,6980,-2.92,-1.36,0.92,21.2,2022-03-04 10:21:08.792,7
336,7000,-2.77,-1.46,0.59,21.2,2022-03-04 10:21:08.891,7
337,7020,-2.91,-1.4,0.91,21.2,2022-03-04 10:21:08.990,7
338,7040,-2.84,-1.43,-0.67,21.2,2022-03-04 10:21:09.090,7
339,7061,-2.53,-1.29,1.1,21.2,2022-03-04 10:21:09.190,7
340,7086,-2.83,-1.59,0.39,19.1,2022-03-04 10:21:09.298,7
341,7106,-2.48,-1.33,0.55,19.1,2022-03-04 10:21:09.397,7
342,7126,-2.57,-1.42,0.63,19.1,2022-03-04 10:21:09.497,7
343,7148,-2.72,-1.44,-0.38,19.1,2022-03-04 10:21:09.597,7
344,7168,-2.42,-1.52,0.83,19.1,2022-03-04 10:21:09.696,7
345,7188,-2.38,-1.47,-0.58,19.1,2022-03-04 10:21:09.796,7
346,7208,-2.42,-1.61,0.71,19.1,2022-03-04 10:21:09.895,7
347,7228,-2.7,-1.51,-1.07,19.1,2022-03-04 10:21:09.994,7
348,7248,-2.96,-1.74,-0.66,19.1,2022-03-04 10:21:10.094,7
349,7268,-2.96,-1.7,-0.9,19.1,2022-03-04 10:21:10.193,7
350,7292,-2.93,-1.83,0.99,19.1,2022-03-04 10:21:10.291,7
351,7312,-3.24,-1.95,1.25,15.5,2022-03-04 10:21:10.390,7
352,7332,-2.54,-2.06,-0.66,15.5,2022-03-04 10:21:10.490,7
353,7356,-2.84,-1.94,0.89,15.5,2022-03-04 10:21:10.598,7
354,7376,-3.06,-2.02,0.85,15.5,2022-03-04 10:21:10.698,7
355,7396,-2.6,-1.99,0.63,15.5,2022-03-04 10:21:10.797,7
356,7416,-2.4,-2.09,0.85,15.5,2022-03-04 10:21:10.896,7
357,7436,-2.56,-1.87,0.83,15.5,2022-03-04 10:21:10.996,7
358,7456,-3.63,-2.09,-0.86,15.5,2022-03-04 10:21:11.097,7
359,7480,-3.0,-2.02,1.68,15.5,2022-03-04 10:21:11.194,7
360,7500,-2.77,-1.8,0.79,15.5,2022-03-04 10:21:11.294,7
361,7520,-3.03,-1.99,0.62,15.5,2022-03-04 10:21:11.393,7
362,7540,-3.1,-1.88,-0.62,15.5,2022-03-04 10:21:11.492,7
363,7562,-3.15,-1.96,-1.7,15.5,2022-03-04 10:21:11.592,7
364,7582,-4.48,-1.81,2.08,15.5,2022-03-04 10:21:11.692,7
365,7602,-3.21,-2.27,1.92,15.5,2022-03-04 10:21:11.790,7
366,7624,-4.15,-1.68,1.65,15.5,2022-03-04 10:21:11.899,7
367,7644,-2.76,-1.91,1.32,15.5,2022-03-04 10:21:11.999,7
368,7664,-3.37,-1.44,-1.02,15.5,2022-03-04 10:21:12.097,7
369,7688,-2.49,-1.42,-0.75,16.2,2022-03-04 10:21:12.198,7
370,7708,-2.63,-1.09,1.63,16.2,2022-03-04 10:21:12.296,7
371,7728,-2.05,-1.15,1.65,16.2,2022-03-04 10:21:12.397,7
372,7748,-2.18,-1.14,1.02,16.2,2022-03-04 10:21:12.494,7
373,7770,-1.48,-1.34,0.9,16.2,2022-03-04 10:21:12.594,7
374,7790,-1.38,-1.17,-1.15,16.2,2022-03-04 10:21:12.693,7
375,7810,-1.06,-1.08,-0.84,16.2,2022-03-04 10:21:12.793,7
376,7830,-0.97,-1.3,-0.62,16.2,2022-03-04 10:21:12.892,7
377,7850,-1.18,-1.03,-0.8,16.2,2022-03-04 10:21:12.991,7
378,7870,-0.96,-1.02,1.31,16.2,2022-03-04 10:21:13.092,7
379,7890,-1.1,-0.87,-0.46,16.2,2022-03-04 10:21:13.189,7
380,7916,-0.48,-0.92,0.69,17.6,2022-03-04 10:21:13.299,7
381,7936,-0.4,-0.96,0.41,17.6,2022-03-04 10:21:13.398,7
382,7956,-0.5,-0.85,0.53,17.6,2022-03-04 10:21:13.497,1
383,7978,0.59,-0.96,-0.61,17.6,2022-03-04 10:21:13.597,1
384,7998,0.48,-0.84,-0.64,17.6,2022-03-04 10:21:13.696,1
385,8018,0.46,-0.77,-0.54,17.6,2022-03-04 10:21:13.795,1
386,8038,0.64,-0.77,-0.44,17.6,2022-03-04 10:21:13.894,1
387,8058,0.85,-0.77,0.56,17.6,2022-03-04 10:21:13.994,1
388,8078,1.06,-0.66,-0.45,17.6,2022-03-04 10:21:14.096,1
389,8102,0.97,-0.75,-0.78,20.2,2022-03-04 10:21:14.193,1
390,8122,0.88,-0.69,-0.54,20.2,2022-03-04 10:21:14.291,1
391,8142,0.78,-0.38,-0.54,20.2,2022-03-04 10:21:14.391,1
392,8164,0.89,-0.47,0.43,20.2,2022-03-04 10:21:14.499,1
393,8186,0.95,-0.22,-0.42,20.2,2022-03-04 10:21:14.599,1
394,8206,1.19,-0.36,-0.57,20.2,2022-03-04 10:21:14.698,1
395,8226,0.94,-0.33,-0.88,20.2,2022-03-04 10:21:14.797,1
396,8246,1.11,-0.35,0.69,20.2,2022-03-04 10:21:14.896,1
397,8266,0.94,-0.4,0.94,20.2,2022-03-04 10:21:14.995,1
398,8286,1.06,0.25,-0.66,20.2,2022-03-04 10:21:15.095,1
399,8310,1.09,-0.32,-1.14,23.4,2022-03-04 10:21:15.194,1
400,8330,1.5,0.25,0.68,23.4,2022-03-04 10:21:15.294,1
401,8350,1.13,0.34,-0.68,23.4,2022-03-04 10:21:15.393,1
402,8370,1.11,-0.45,-0.92,23.4,2022-03-04 10:21:15.492,1
403,8392,1.64,0.32,-1.19,23.4,2022-03-04 10:21:15.593,1
404,8412,1.9,0.55,-1.41,23.4,2022-03-04 10:21:15.691,1
405,8432,1.6,-0.32,1.06,23.4,2022-03-04 10:21:15.791,1
406,8454,1.44,0.53,0.75,23.4,2022-03-04 10:21:15.899,1
407,8474,1.71,-0.65,-1.1,23.4,2022-03-04 10:21:15.998,1
408,8494,1.22,0.39,0.99,23.4,2022-03-04 10:21:16.099,1
409,8518,1.31,0.45,-0.74,26.6,2022-03-04 10:21:16.198,1
410,8538,1.49,-0.27,-0.95,26.6,2022-03-04 10:21:16.296,1
411,8558,1.47,-0.52,0.74,26.6,2022-03-04 10:21:16.395,1
412,8578,1.39,-0.53,-1.0,26.6,2022-03-04 10:21:16.495,1
413,8600,1.52,0.48,-1.51,26.6,2022-03-04 10:21:16.594,1
414,8620,1.29,-0.39,1.18,26.6,2022-03-04 10:21:16.694,1
415,8640,1.11,-0.34,-0.98,26.6,2022-03-04 10:21:16.793,1
416,8660,1.01,0.31,0.94,26.6,2022-03-04 10:21:16.892,1
417,8680,1.78,-0.46,0.79,26.6,2022-03-04 10:21:16.992,1
418,8700,0.94,-0.48,-0.8,26.6,2022-03-04 10:21:17.091,1
419,8724,1.21,-0.28,-0.76,29.2,2022-03-04 10:21:17.190,1
420,8746,1.22,-0.29,0.86,29.2,2022-03-04 10:21:17.299,1
421,8766,0.79,-0.33,0.94,29.2,2022-03-04 10:21:17.398,1
422,8786,1.4,-0.23,0.81,29.2,2022-03-04 10:21:17.497,1
423,8808,1.13,0.29,-0.87,29.2,2022-03-04 10:21:17.597,1
424,8828,1.19,0.34,1.21,29.2,2022-03-04 10:21:17.696,1
425,8848,1.2,0.39,-1.12,29.2,2022-03-04 10:21:17.797,1
426,8868,1.07,0.35,-0.93,29.2,2022-03-04 10:21:17.894,1
427,8888,0.81,-0.32,0.95,29.2,2022-03-04 10:21:17.994,1
428,8908,1.1,-0.27,1.19,29.2,2022-03-04 10:21:18.093,1
429,8932,0.7,0.29,0.9,31.7,2022-03-04 10:21:18.193,1
430,8952,1.04,-0.39,-1.19,31.7,2022-03-04 10:21:18.292,1
431,8972,0.76,-0.31,-0.85,31.7,2022-03-04 10:21:18.390,1
432,8992,1.33,0.28,-1.14,31.7,2022-03-04 10:21:18.490,1
433,9016,0.87,0.37,1.09,31.7,2022-03-04 10:21:18.599,1
434,9036,0.55,0.35,-1.02,31.7,2022-03-04 10:21:18.698,1
435,9056,-0.62,-0.34,-1.39,31.7,2022-03-04 10:21:18.798,1
436,9076,0.65,-0.48,-1.19,31.7,2022-03-04 10:21:18.896,1
437,9096,1.22,-0.38,-1.65,31.7,2022-03-04 10:21:18.996,1
438,9116,0.84,-1.06,-1.14,31.7,2022-03-04 10:21:19.095,1
439,9136,0.74,-1.44,-0.88,31.7,2022-03-04 10:21:19.195,1
440,9160,0.89,-1.13,0.66,34.2,2022-03-04 10:21:19.294,1
441,9180,0.64,-1.46,-0.88,34.2,2022-03-04 10:21:19.393,1
442,9200,-0.6,-1.35,-1.3,34.2,2022-03-04 10:21:19.492,1
443,9222,0.78,-1.33,-0.75,34.2,2022-03-04 10:21:19.592,1
444,9242,0.69,-1.41,-0.81,34.2,2022-03-04 10:21:19.691,1
445,9262,0.64,-1.16,-0.33,34.2,2022-03-04 10:21:19.792,1
446,9282,0.81,-1.19,0.81,34.2,2022-03-04 10:21:19.891,1
447,9304,0.71,-0.95,0.73,34.2,2022-03-04 10:21:19.998,1
448,9322,0.46,-0.47,0.4,34.2,2022-03-04 10:21:20.089,1
449,9348,0.69,-0.57,0.77,34.6,2022-03-04 10:21:20.197,1
450,9368,1.33,0.53,0.6,34.6,2022-03-04 10:21:20.297,1
451,9388,0.88,0.47,-1.17,34.6,2022-03-04 10:21:20.395,1
452,9408,0.79,-0.51,-1.28,34.6,2022-03-04 10:21:20.495,1
453,9430,0.68,0.42,-0.61,34.6,2022-03-04 10:21:20.595,1
454,9450,0.7,-0.49,-0.99,34.6,2022-03-04 10:21:20.694,1
455,9470,-1.04,0.4,-1.12,34.6,2022-03-04 10:21:20.793,1
456,9490,0.68,-0.51,-0.83,34.6,2022-03-04 10:21:20.892,1
457,9510,-0.8,0.4,-0.82,34.6,2022-03-04 10:21:20.991,1
458,9530,1.11,-0.66,-1.18,34.6,2022-03-04 10:21:21.091,1
459,9554,1.03,0.4,-1.04,37.1,2022-03-04 10:21:21.190,1
460,9576,1.04,-0.72,1.11,37.1,2022-03-04 10:21:21.299,1
461,9596,0.94,0.75,0.78,37.1,2022-03-04 10:21:21.399,1
462,9616,1.1,0.75,1.37,37.1,2022-03-04 10:21:21.498,1
463,9638,1.01,0.75,1.49,37.1,2022-03-04 10:21:21.597,1
464,9658,-1.06,0.65,-1.52,37.1,2022-03-04 10:21:21.697,1
465,9678,-1.39,0.6,0.93,37.1,2022-03-04 10:21:21.795,1
466,9698,1.24,0.52,1.55,37.1,2022-03-04 10:21:21.895,1
467,9718,0.64,-0.55,-0.82,37.1,2022-03-04 10:21:21.994,1
468,9738,0.82,-0.46,0.5,37.1,2022-03-04 10:21:22.094,1
469,9762,0.85,-0.42,-0.89,40.0,2022-03-04 10:21:22.192,1
470,9782,0.83,-0.48,-1.15,40.0,2022-03-04 10:21:22.295,1
471,9802,0.91,-0.28,0.99,40.0,2022-03-04 10:21:22.391,1
472,9822,1.52,-0.33,-1.11,40.0,2022-03-04 10:21:22.490,1
473,9846,1.0,-0.52,-1.09,40.0,2022-03-04 10:21:22.599,1
474,9866,0.68,-0.71,-0.95,40.0,2022-03-04 10:21:22.699,1
475,9886,0.81,-0.56,1.12,40.0,2022-03-04 10:21:22.798,1
476,9906,1.8,-0.51,-0.99,40.0,2022-03-04 10:21:22.897,1
477,9926,1.2,-0.43,-1.47,40.0,2022-03-04 10:21:22.996,1
478,9946,-0.57,-0.59,0.95,40.0,2022-03-04 10:21:23.096,1
479,9970,1.0,-0.53,-1.42,41.4,2022-03-04 10:21:23.195,1
480,9990,1.01,-0.68,-1.42,41.4,2022-03-04 10:21:23.294,1
481,10010,1.01,-0.69,-1.09,41.4,2022-03-04 10:21:23.393,1
482,10030,-0.4,-0.45,-0.95,41.4,2022-03-04 10:21:23.494,1
483,10052,1.67,-0.49,-1.64,41.4,2022-03-04 10:21:23.592,1
484,10072,1.22,-0.77,-1.65,41.4,2022-03-04 10:21:23.691,1
485,10092,1.38,-0.5,1.28,41.4,2022-03-04 10:21:23.791,1
486,10112,-1.2,-0.45,1.28,41.4,2022-03-04 10:21:23.890,1
487,10132,1.08,-0.63,-1.15,41.4,2022-03-04 10:21:23.989,1
488,10152,0.97,-0.48,1.29,41.4,2022-03-04 10:21:24.089,1
489,10176,-1.43,-0.57,-1.05,43.2,2022-03-04 10:21:24.188,1
490,10198,0.72,-0.58,1.49,43.2,2022-03-04 10:21:24.297,1
491,10218,-1.07,-0.62,-1.27,43.2,2022-03-04 10:21:24.396,1
492,10238,0.54,-0.83,-0.76,43.2,2022-03-04 10:21:24.495,1
493,10260,0.82,-0.46,0.81,43.2,2022-03-04 10:21:24.594,1
494,10280,-0.89,-0.79,0.71,43.2,2022-03-04 10:21:24.694,1
495,10300,-1.08,-1.37,-0.73,43.2,2022-03-04 10:21:24.794,1
496,10320,-0.96,-1.19,-0.68,43.2,2022-03-04 10:21:24.892,1
497,10340,0.79,-1.18,-0.87,43.2,2022-03-04 10:21:24.992,1
498,10360,-0.82,-1.09,-0.64,43.2,2022-03-04 10:21:25.091,1
499,10384,-0.41,-1.0,-0.72,43.9,2022-03-04 10:21:25.194,1
500,10404,0.7,-1.29,-1.36,43.9,2022-03-04 10:21:25.291,1
501,10424,0.65,-1.16,0.79,43.9,2022-03-04 10:21:25.390,1
502,10444,-0.62,-1.19,-0.89,43.9,2022-03-04 10:21:25.489,1
503,10468,0.71,-1.12,-1.08,43.9,2022-03-04 10:21:25.597,1
504,10486,-1.03,-0.61,1.23,43.9,2022-03-04 10:21:25.687,1
505,10508,0.94,-0.39,-0.98,43.9,2022-03-04 10:21:25.796,1
506,10528,-0.74,-0.65,-1.01,43.9,2022-03-04 10:21:25.895,1
507,10548,1.13,-0.63,-0.42,43.9,2022-03-04 10:21:25.994,1
508,10568,0.67,-0.71,-0.67,43.9,2022-03-04 10:21:26.094,1
509,10592,-0.44,-0.68,-0.56,44.3,2022-03-04 10:21:26.195,1
510,10612,0.61,-0.49,-0.9,44.3,2022-03-04 10:21:26.292,1
511,10632,0.39,-0.69,-0.77,44.3,2022-03-04 10:21:26.391,1
512,10652,0.98,0.51,0.58,44.3,2022-03-04 10:21:26.490,1
513,10674,0.54,-0.35,-0.71,44.3,2022-03-04 10:21:26.590,1
514,10694,0.74,-0.43,-1.05,44.3,2022-03-04 10:21:26.689,1
515,10714,0.65,-0.79,0.7,44.3,2022-03-04 10:21:26.788,1
516,10736,0.53,-0.46,-0.86,44.3,2022-03-04 10:21:26.898,1
517,10756,1.21,0.37,-0.66,44.3,2022-03-04 10:21:26.998,1
518,10776,0.88,-0.51,0.68,44.3,2022-03-04 10:21:27.098,1
519,10800,-0.73,0.59,1.16,45.7,2022-03-04 10:21:27.198,1
520,10820,0.96,-0.43,-1.1,45.7,2022-03-04 10:21:27.296,10
521,10840,-0.47,-0.44,-0.85,45.7,2022-03-04 10:21:27.394,10
522,10860,-0.56,-0.66,-0.89,45.7,2022-03-04 10:21:27.493,10
523,10882,-0.65,-0.73,0.64,45.7,2022-03-04 10:21:27.592,10
524,10902,-0.96,-0.58,0.61,45.7,2022-03-04 10:21:27.692,10
525,10922,-0.69,-0.39,-1.01,45.7,2022-03-04 10:21:27.791,10
526,10942,-0.91,-0.62,0.72,45.7,2022-03-04 10:21:27.891,10
527,10962,-0.48,-0.47,0.9,45.7,2022-03-04 10:21:27.990,10
528,10982,-0.76,-0.63,-0.44,45.7,2022-03-04 10:21:28.089,10
529,11004,-0.68,-0.84,-0.34,45.7,2022-03-04 10:21:28.199,10
530,11028,-0.67,-0.94,-0.52,46.8,2022-03-04 10:21:28.298,4
531,11048,-0.44,-0.91,-0.52,46.8,2022-03-04 10:21:28.398,4
532,11068,-0.71,-0.98,-0.68,46.8,2022-03-04 10:21:28.498,4
533,11090,-0.47,-0.97,-1.15,46.8,2022-03-04 10:21:28.598,4
534,11110,-0.84,-1.0,-0.8,46.8,2022-03-04 10:21:28.694,4
535,11130,-0.53,-1.15,-0.77,46.8,2022-03-04 10:21:28.793,4
536,11150,-0.69,-1.61,-0.73,46.8,2022-03-04 10:21:28.893,4
537,11170,-0.68,-1.15,-0.92,46.8,2022-03-04 10:21:28.993,4
538,11190,-0.82,-0.93,-0.85,46.8,2022-03-04 10:21:29.091,4
539,11210,-0.61,-0.88,0.3,46.8,2022-03-04 10:21:29.191,4
540,11234,-0.55,-0.93,0.74,46.8,2022-03-04 10:21:29.290,4
541,11254,-0.78,-0.87,0.51,46.1,2022-03-04 10:21:29.389,4
542,11276,-0.99,-1.26,0.75,46.1,2022-03-04 10:21:29.499,4
543,11298,-0.88,-1.23,0.43,46.1,2022-03-04 10:21:29.598,4
544,11318,-0.39,-1.26,0.71,46.1,2022-03-04 10:21:29.698,4
545,11338,-0.63,-1.3,-0.95,46.1,2022-03-04 10:21:29.797,4
546,11358,-0.77,-1.14,-0.58,46.1,2022-03-04 10:21:29.897,4
547,11378,-0.59,-1.23,-0.55,46.1,2022-03-04 10:21:29.994,4
548,11398,-0.71,-1.18,-0.55,46.1,2022-03-04 10:21:30.094,4
549,11422,-0.73,-1.21,1.18,46.1,2022-03-04 10:21:30.193,4
550,11442,-0.87,-1.23,1.13,44.6,2022-03-04 10:21:30.293,4
551,11462,-0.81,-1.21,-0.91,44.6,2022-03-04 10:21:30.399,4
552,11482,-0.57,-1.23,0.8,44.6,2022-03-04 10:21:30.492,4
553,11504,-0.65,-1.28,-0.79,44.6,2022-03-04 10:21:30.590,4
554,11526,-0.42,-1.23,0.69,44.6,2022-03-04 10:21:30.699,4
555,11544,-0.59,-1.17,-0.73,44.6,2022-03-04 10:21:30.788,4
556,11566,-0.69,-1.06,0.59,44.6,2022-03-04 10:21:30.898,4
557,11586,-0.42,-1.26,-1.11,44.6,2022-03-04 10:21:30.997,4
558,11606,-0.49,-1.23,-0.71,44.6,2022-03-04 10:21:31.097,4
559,11630,-0.47,-1.25,0.44,44.6,2022-03-04 10:21:31.196,4
560,11650,0.83,-1.41,-0.94,42.5,2022-03-04 10:21:31.296,4
561,11670,-0.48,-1.27,-0.6,42.5,2022-03-04 10:21:31.396,4
562,11690,-0.68,-1.16,-0.85,42.5,2022-03-04 10:21:31.496,4
563,11712,-0.56,-1.36,-0.63,42.5,2022-03-04 10:21:31.592,4
564,11732,-0.74,-1.54,1.14,42.5,2022-03-04 10:21:31.692,4
565,11752,-0.45,-1.33,-0.63,42.5,2022-03-04 10:21:31.791,4
566,11772,-0.39,-1.47,0.81,42.5,2022-03-04 10:21:31.890,4
567,11794,0.92,-1.49,0.72,42.5,2022-03-04 10:21:31.999,4
568,11812,-0.56,-1.22,-1.03,42.5,2022-03-04 10:21:32.089,4
569,11838,-0.53,-1.41,-1.12,42.5,2022-03-04 10:21:32.198,4
570,11858,-0.85,-1.37,-1.12,40.7,2022-03-04 10:21:32.299,4
571,11878,-0.8,-1.56,-1.08,40.7,2022-03-04 10:21:32.397,4
572,11898,-0.95,-1.48,-0.98,40.7,2022-03-04 10:21:32.497,4
573,11920,1.38,-1.64,1.74,40.7,2022-03-04 10:21:32.596,4
574,11940,-1.14,-1.32,-1.79,40.7,2022-03-04 10:21:32.697,4
575,11960,-1.39,-1.83,-1.36,40.7,2022-03-04 10:21:32.796,4
576,11980,-1.06,-1.94,-1.64,40.7,2022-03-04 10:21:32.896,4
577,12000,-0.82,-1.55,-1.5,40.7,2022-03-04 10:21:32.992,4
578,12020,-0.51,-1.86,-1.21,40.7,2022-03-04 10:21:33.092,4
579,12044,-0.62,-1.69,-0.57,40.7,2022-03-04 10:21:33.191,4
580,12064,-0.82,-1.45,1.26,38.9,2022-03-04 10:21:33.290,4
581,12084,-0.75,-1.59,0.7,38.9,2022-03-04 10:21:33.389,4
582,12106,-0.9,-1.39,-1.1,38.9,2022-03-04 10:21:33.499,4
583,12128,-0.63,-1.47,0.81,38.9,2022-03-04 10:21:33.599,4
584,12148,-0.57,-1.43,0.54,38.9,2022-03-04 10:21:33.697,4
585,12168,-0.52,-1.55,1.14,38.9,2022-03-04 10:21:33.797,4
586,12188,-0.77,-1.44,-0.92,38.9,2022-03-04 10:21:33.896,4
587,12208,-0.72,-1.46,-0.66,38.9,2022-03-04 10:21:33.995,4
588,12228,-0.48,-1.49,0.66,38.9,2022-03-04 10:21:34.095,4
589,12252,-0.47,-1.3,-0.69,38.9,2022-03-04 10:21:34.197,4
590,12272,-0.77,-1.35,0.52,35.3,2022-03-04 10:21:34.299,4
591,12290,-0.41,-1.26,-0.85,35.3,2022-03-04 10:21:34.386,4
592,12312,-0.8,-1.22,-0.88,35.3,2022-03-04 10:21:34.491,4
593,12334,-0.75,-1.45,0.53,35.3,2022-03-04 10:21:34.590,4
594,12354,-0.57,-1.35,-0.6,35.3,2022-03-04 10:21:34.690,4
595,12374,-0.35,-1.36,-0.45,35.3,2022-03-04 10:21:34.789,4
596,12396,0.58,-1.38,-0.71,35.3,2022-03-04 10:21:34.898,4
597,12416,-0.52,-1.27,-0.66,35.3,2022-03-04 10:21:34.998,4
598,12434,-0.42,-1.26,-0.71,35.3,2022-03-04 10:21:35.097,4
599,12456,-0.45,-1.28,0.49,35.3,2022-03-04 10:21:35.196,4
600,12480,-0.46,-1.05,-0.78,35.3,2022-03-04 10:21:35.295,4
601,12500,-0.52,-1.21,-0.72,31.0,2022-03-04 10:21:35.398,4
602,12520,-0.58,-1.19,-0.57,31.0,2022-03-04 10:21:35.494,4
603,12542,-0.41,-0.97,-0.67,31.0,2022-03-04 10:21:35.593,4
604,12562,-0.53,-1.18,-0.4,31.0,2022-03-04 10:21:35.694,4
605,12582,0.23,-1.09,-0.34,31.0,2022-03-04 10:21:35.794,4
606,12602,-0.33,-1.01,-0.8,31.0,2022-03-04 10:21:35.893,4
607,12622,-0.38,-1.06,-0.43,31.0,2022-03-04 10:21:35.991,4
608,12642,-0.54,-0.97,-0.53,31.0,2022-03-04 10:21:36.090,4
609,12664,-0.33,-1.0,-0.43,31.0,2022-03-04 10:21:36.192,4
610,12688,-0.35,-0.95,-0.28,25.9,2022-03-04 10:21:36.298,4
611,12706,-0.54,-1.03,0.44,25.9,2022-03-04 10:21:36.387,4
612,12728,-0.26,-0.88,-0.53,25.9,2022-03-04 10:21:36.496,4
613,12750,-0.5,-0.9,-0.82,25.9,2022-03-04 10:21:36.595,4
614,12770,-0.43,-0.89,-1.07,25.9,2022-03-04 10:21:36.695,4
615,12790,-0.29,-0.86,0.51,25.9,2022-03-04 10:21:36.794,4
616,12810,-0.32,-0.83,0.56,25.9,2022-03-04 10:21:36.894,4
617,12830,-0.23,-0.87,-0.23,25.9,2022-03-04 10:21:36.993,4
618,12850,-0.38,-0.79,0.49,25.9,2022-03-04 10:21:37.095,4
619,12874,-0.45,-0.74,-0.98,25.9,2022-03-04 10:21:37.192,4
620,12894,-0.66,-0.87,-0.82,20.5,2022-03-04 10:21:37.290,4
621,12916,-0.29,-0.73,-0.33,20.5,2022-03-04 10:21:37.399,4
622,12934,-0.17,-0.84,0.34,20.5,2022-03-04 10:21:37.489,4
623,12958,-0.3,-0.79,0.32,20.5,2022-03-04 10:21:37.598,4
624,12978,-0.5,-0.86,-0.4,20.5,2022-03-04 10:21:37.698,4
625,12998,-0.4,-0.85,-0.45,20.5,2022-03-04 10:21:37.798,4
626,13018,-0.17,-0.96,-0.34,20.5,2022-03-04 10:21:37.898,4
627,13038,-0.35,-1.06,-0.43,20.5,2022-03-04 10:21:37.995,4
628,13058,-0.37,-0.93,-0.57,20.5,2022-03-04 10:21:38.095,4
629,13078,-0.38,-0.97,-0.5,20.5,2022-03-04 10:21:38.194,4
630,13102,-0.19,-0.9,0.26,14.0,2022-03-04 10:21:38.293,4
631,13122,-0.27,-0.94,-0.25,14.0,2022-03-04 10:21:38.393,4
632,13142,-0.14,-0.95,-0.35,14.0,2022-03-04 10:21:38.495,4
633,13164,-0.47,-0.99,-0.41,14.0,2022-03-04 10:21:38.593,4
634,13184,-0.46,-0.99,-0.46,14.0,2022-03-04 10:21:38.690,4
635,13206,-0.18,-0.88,-0.3,14.0,2022-03-04 10:21:38.799,4
636,13226,-0.44,-0.97,-0.37,14.0,2022-03-04 10:21:38.898,4
637,13246,-0.28,-0.96,-0.35,14.0,2022-03-04 10:21:38.998,4
638,13266,-0.25,-0.92,-0.25,14.0,2022-03-04 10:21:39.097,4
639,13288,-0.18,-0.9,-0.36,14.0,2022-03-04 10:21:39.197,4
640,13310,-0.3,-0.63,-0.36,7.2,2022-03-04 10:21:39.296,4
641,13330,-0.25,-0.43,-0.32,7.2,2022-03-04 10:21:39.395,4
642,13350,-0.24,-0.12,-0.26,7.2,2022-03-04 10:21:39.494,4
643,13372,-0.33,0.14,0.19,7.2,2022-03-04 10:21:39.593,4
644,13392,-0.36,0.12,0.15,7.2,2022-03-04 10:21:39.692,4
645,13412,-0.36,0.15,-0.31,7.2,2022-03-04 10:21:39.792,4
646,13432,-0.32,0.14,-0.14,7.2,2022-03-04 10:21:39.892,4
647,13452,-0.26,0.19,-0.22,7.2,2022-03-04 10:21:39.992,4
648,13474,-0.35,0.46,-0.22,7.2,2022-03-04 10:21:40.099,4
649,13492,-0.4,0.84,-0.17,7.2,2022-03-04 10:21:40.190,4
650,13518,-0.49,1.5,0.23,7.2,2022-03-04 10:21:40.298,4
651,13538,-0.33,1.66,-0.3,2.5,2022-03-04 10:21:40.399,4
652,13558,-0.4,1.66,-0.29,2.5,2022-03-04 10:21:40.496,4
653,13580,-0.41,1.32,-0.34,2.5,2022-03-04 10:21:40.596,4
654,13600,-0.32,1.07,0.16,2.5,2022-03-04 10:21:40.696,4
655,13620,-0.43,1.16,-0.23,2.5,2022-03-04 10:21:40.794,4
656,13640,-0.36,1.31,-0.19,2.5,2022-03-04 10:21:40.894,4
657,13660,-0.4,1.32,-0.26,2.5,2022-03-04 10:21:40.994,4
658,13680,-0.42,1.24,-0.18,2.5,2022-03-04 10:21:41.092,4
659,13704,-0.38,1.23,-0.22,2.5,2022-03-04 10:21:41.192,4
660,13724,-0.38,1.3,-0.27,2.2,2022-03-04 10:21:41.291,4
661,13744,-0.41,1.28,-0.29,2.2,2022-03-04 10:21:41.391,4
662,13766,-0.38,1.26,-0.17,2.2,2022-03-04 10:21:41.499,4
663,13788,-0.41,1.28,-0.29,2.2,2022-03-04 10:21:41.598,4
664,13808,-0.33,1.21,-0.19,2.2,2022-03-04 10:21:41.698,4
665,13828,-0.4,1.23,-0.19,2.2,2022-03-04 10:21:41.797,4
666,13848,-0.35,1.24,-0.19,2.2,2022-03-04 10:21:41.896,4
667,13868,-0.44,1.23,0.25,2.2,2022-03-04 10:21:41.995,4
668,13888,-0.35,1.24,-0.2,2.2,2022-03-04 10:21:42.095,4
669,13910,-0.43,1.24,-0.25,2.2,2022-03-04 10:21:42.189,4
670,13932,-0.33,1.2,-0.25,0.0,2022-03-04 10:21:42.295,4
671,13952,-0.4,1.2,-0.2,0.0,2022-03-04 10:21:42.392,4
672,13972,-0.38,1.19,-0.26,0.0,2022-03-04 10:21:42.493,4
673,13994,-0.46,1.21,-0.25,0.0,2022-03-04 10:21:42.591,4
674,14014,-0.29,1.2,-0.23,0.0,2022-03-04 10:21:42.692,4
675,14034,-0.4,1.15,-0.2,0.0,2022-03-04 10:21:42.790,4
676,14056,-0.33,1.01,-0.21,0.0,2022-03-04 10:21:42.899,4
677,14076,-0.36,0.94,-0.22,0.0,2022-03-04 10:21:42.998,4
678,14096,-0.3,0.81,-0.24,0.0,2022-03-04 10:21:43.098,4
679,14120,-0.34,0.78,-0.25,0.0,2022-03-04 10:21:43.198,4
680,14140,-0.21,0.62,-0.22,0.0,2022-03-04 10:21:43.298,4
681,14160,-0.29,0.68,-0.25,0.0,2022-03-04 10:21:43.396,4
682,14180,-0.3,0.54,-0.3,0.0,2022-03-04 10:21:43.495,4
683,14202,-0.21,0.47,-0.23,0.0,2022-03-04 10:21:43.594,4
684,14222,-0.28,0.52,-0.28,0.0,2022-03-04 10:21:43.692,4
685,14242,-0.23,0.46,-0.2,0.0,2022-03-04 10:21:43.792,4
686,14262,-0.26,0.38,-0.26,0.0,2022-03-04 10:21:43.892,4
687,14282,-0.24,0.38,-0.29,0.0,2022-03-04 10:21:43.990,0
688,14302,-0.2,0.33,-0.21,0.0,2022-03-04 10:21:44.091,0
689,14324,-0.25,0.35,-0.2,0.0,2022-03-04 10:21:44.199,0
690,14348,-0.21,0.33,-0.3,0.0,2022-03-04 10:21:44.298,0
691,14368,-0.25,0.4,-0.29,0.0,2022-03-04 10:21:44.398,0
692,14388,-0.25,0.48,-0.32,0.0,2022-03-04 10:21:44.497,0
693,14410,-0.25,0.41,-0.33,0.0,2022-03-04 10:21:44.596,0
694,14430,-0.19,0.3,-0.27,0.0,2022-03-04 10:21:44.695,0
695,14450,-0.26,0.3,-0.24,0.0,2022-03-04 10:21:44.795,0
696,14470,-0.2,0.42,-0.31,0.0,2022-03-04 10:21:44.894,0
697,14490,0.17,0.34,-0.2,0.0,2022-03-04 10:21:44.993,0
698,14510,-0.26,0.34,-0.3,0.0,2022-03-04 10:21:45.093,0
699,14534,-0.21,0.3,-0.24,0.0,2022-03-04 10:21:45.192,0
700,14554,-0.13,0.27,-0.28,0.0,2022-03-04 10:21:45.291,0
701,14574,-0.15,0.24,-0.2,0.0,2022-03-04 10:21:45.390,0
702,14594,-0.24,0.2,-0.37,0.0,2022-03-04 10:21:45.492,0
703,14618,-0.23,0.33,-0.38,0.0,2022-03-04 10:21:45.599,0
704,14638,-0.2,0.22,-0.27,0.0,2022-03-04 10:21:45.698,0
705,14658,-0.2,0.26,-0.22,0.0,2022-03-04 10:21:45.798,0
706,14678,-0.22,0.23,-0.26,0.0,2022-03-04 10:21:45.896,0
707,14698,0.16,0.22,-0.24,0.0,2022-03-04 10:21:45.996,0
708,14718,-0.22,0.2,-0.26,0.0,2022-03-04 10:21:46.095,0
709,14736,-0.18,0.19,-0.25,0.0,2022-03-04 10:21:46.182,0
