,LineNumber,Accel_X,Accel_Y,Accel_Z,Velocity,RealTime,Label
0,30,-0.2,0.56,-0.24,0.7,2022-03-04 10:05:07.497,0
1,52,-0.17,0.57,-0.25,0.7,2022-03-04 10:05:07.597,0
2,70,-0.23,0.52,-0.2,0.7,2022-03-04 10:05:07.688,0
3,92,-0.17,0.55,-0.34,0.7,2022-03-04 10:05:07.796,0
4,112,0.37,0.5,-0.23,0.7,2022-03-04 10:05:07.896,0
5,132,-0.32,0.65,-0.23,0.7,2022-03-04 10:05:07.994,0
6,152,-0.2,0.51,-0.28,0.7,2022-03-04 10:05:08.094,0
7,176,0.15,0.5,-0.34,0.7,2022-03-04 10:05:08.199,0
8,196,0.18,0.46,-0.22,0.0,2022-03-04 10:05:08.292,0
9,216,-0.23,0.47,-0.21,0.0,2022-03-04 10:05:08.391,0
10,238,0.23,0.57,-0.73,0.0,2022-03-04 10:05:08.499,0
11,260,-0.17,0.46,-0.33,0.0,2022-03-04 10:05:08.599,0
12,280,0.15,0.43,-0.24,0.0,2022-03-04 10:05:08.698,0
13,300,-0.25,0.44,0.17,0.0,2022-03-04 10:05:08.798,0
14,320,-0.17,0.43,-0.21,0.0,2022-03-04 10:05:08.897,0
15,340,0.16,0.44,-0.29,0.0,2022-03-04 10:05:08.997,0
16,360,0.15,0.4,-0.32,0.0,2022-03-04 10:05:09.095,0
17,384,-0.19,0.39,-0.19,0.0,2022-03-04 10:05:09.195,0
18,404,-0.21,0.4,0.16,0.0,2022-03-04 10:05:09.294,0
19,424,0.21,0.41,-0.36,0.0,2022-03-04 10:05:09.393,0
20,444,-0.23,0.41,-0.17,0.0,2022-03-04 10:05:09.493,0
21,466,-0.18,0.31,-0.28,0.0,2022-03-04 10:05:09.593,0
22,486,-0.23,0.38,-0.24,0.0,2022-03-04 10:05:09.691,0
23,506,0.17,0.37,-0.13,0.0,2022-03-04 10:05:09.790,0
24,528,-0.15,0.37,-0.33,0.0,2022-03-04 10:05:09.899,0
25,548,-0.25,0.36,-0.23,0.0,2022-03-04 10:05:09.998,0
26,568,0.16,0.24,-0.18,0.0,2022-03-04 10:05:10.098,0
27,592,-0.23,0.36,-0.24,0.0,2022-03-04 10:05:10.197,0
28,612,0.1,0.37,-0.19,0.0,2022-03-04 10:05:10.296,0
29,632,-0.21,0.27,-0.28,0.0,2022-03-04 10:05:10.395,0
30,652,-0.18,0.34,-0.33,0.0,2022-03-04 10:05:10.495,0
31,674,0.17,0.33,-0.28,0.0,2022-03-04 10:05:10.594,0
32,694,0.25,0.27,-0.22,0.0,2022-03-04 10:05:10.693,0
33,714,-0.18,0.32,-0.29,0.0,2022-03-04 10:05:10.793,0
34,734,-0.18,0.27,-0.31,0.0,2022-03-04 10:05:10.892,0
35,754,0.13,0.25,-0.29,0.0,2022-03-04 10:05:10.991,0
36,774,-0.17,0.31,-0.21,0.0,2022-03-04 10:05:11.093,0
37,798,0.15,0.28,-0.25,0.0,2022-03-04 10:05:11.191,0
38,820,-0.2,0.34,-0.56,0.0,2022-03-04 10:05:11.299,0
39,840,-0.3,0.35,-0.73,0.0,2022-03-04 10:05:11.398,0
40,860,0.14,0.23,-0.18,0.0,2022-03-04 10:05:11.499,0
41,882,-0.14,0.28,-0.17,0.0,2022-03-04 10:05:11.597,0
42,902,0.15,0.25,-0.3,0.0,2022-03-04 10:05:11.696,0
43,922,-0.21,0.25,-0.26,0.0,2022-03-04 10:05:11.795,0
44,942,0.16,0.24,-0.24,0.0,2022-03-04 10:05:11.895,0
45,962,-0.24,0.21,-0.28,0.0,2022-03-04 10:05:11.994,0
46,982,-0.16,0.2,-0.3,0.0,2022-03-04 10:05:12.094,0
47,1006,-0.19,0.23,-0.27,0.0,2022-03-04 10:05:12.196,0
48,1026,-0.19,0.26,-0.2,0.0,2022-03-04 10:05:12.292,0
49,1046,-0.15,0.17,-0.26,0.0,2022-03-04 10:05:12.391,0
50,1066,-0.23,0.21,-0.24,0.0,2022-03-04 10:05:12.490,0
51,1090,-0.21,0.21,-0.23,0.0,2022-03-04 10:05:12.599,0
52,1108,-0.14,0.21,-0.19,0.0,2022-03-04 10:05:12.691,0
53,1130,-0.16,0.24,-0.24,0.0,2022-03-04 10:05:12.798,0
54,1150,0.22,0.17,-0.41,0.0,2022-03-04 10:05:12.897,0
55,1170,-0.22,0.22,-0.3,0.0,2022-03-04 10:05:12.996,0
56,1190,-0.19,0.21,-0.19,0.0,2022-03-04 10:05:13.096,0
57,1214,-0.14,0.21,-0.34,0.0,2022-03-04 10:05:13.196,0
58,1234,-0.24,0.16,-0.23,0.0,2022-03-04 10:05:13.296,0
59,1254,-0.23,0.16,-0.3,0.0,2022-03-04 10:05:13.394,0
60,1274,-0.19,0.19,-0.26,0.0,2022-03-04 10:05:13.492,0
61,1296,-0.2,0.17,-0.42,0.0,2022-03-04 10:05:13.593,0
62,1316,-0.14,0.17,-0.29,0.0,2022-03-04 10:05:13.695,0
63,1336,0.12,0.17,-0.21,0.0,2022-03-04 10:05:13.792,1
64,1356,-0.13,0.31,-0.29,0.0,2022-03-04 10:05:13.890,1
65,1376,0.39,0.62,-0.43,0.0,2022-03-04 10:05:13.989,1
66,1398,-0.28,0.55,-0.44,0.0,2022-03-04 10:05:14.099,1
67,1418,-0.23,0.53,-0.26,0.0,2022-03-04 10:05:14.191,1
68,1442,-0.21,0.59,-0.39,0.0,2022-03-04 10:05:14.297,1
69,1462,-0.2,0.91,-0.37,0.0,2022-03-04 10:05:14.396,1
70,1482,-0.27,1.29,-0.39,0.0,2022-03-04 10:05:14.498,1
71,1504,-0.39,1.39,0.27,0.0,2022-03-04 10:05:14.596,1
72,1524,-0.53,1.52,-0.56,0.0,2022-03-04 10:05:14.694,1
73,1544,-0.55,1.58,-0.48,0.0,2022-03-04 10:05:14.793,1
74,1564,-0.71,1.65,-0.78,0.0,2022-03-04 10:05:14.892,1
75,1584,-0.56,1.71,-0.47,0.0,2022-03-04 10:05:14.991,1
76,1604,-0.89,2.07,-0.55,0.0,2022-03-04 10:05:15.091,1
77,1624,-0.79,2.19,-0.89,0.0,2022-03-04 10:05:15.192,1
78,1648,-0.82,2.05,0.45,0.0,2022-03-04 10:05:15.290,1
79,1670,-0.79,2.28,0.68,0.0,2022-03-04 10:05:15.399,1
80,1690,-0.82,2.3,-1.21,0.0,2022-03-04 10:05:15.498,1
81,1712,-0.62,2.52,-1.14,0.0,2022-03-04 10:05:15.597,1
82,1732,-0.73,2.47,-0.97,0.0,2022-03-04 10:05:15.697,1
83,1752,-0.69,2.49,-0.89,0.0,2022-03-04 10:05:15.796,1
84,1772,-0.7,2.61,1.12,0.0,2022-03-04 10:05:15.898,1
85,1792,-0.66,2.7,0.87,0.0,2022-03-04 10:05:15.994,1
86,1812,-0.83,2.57,1.09,0.0,2022-03-04 10:05:16.093,1
87,1836,-0.98,2.7,1.24,2.2,2022-03-04 10:05:16.192,1
88,1856,-0.72,1.91,-1.28,2.2,2022-03-04 10:05:16.292,1
89,1876,0.42,0.59,-0.82,2.2,2022-03-04 10:05:16.391,1
90,1896,-0.28,-0.3,0.35,2.2,2022-03-04 10:05:16.490,1
91,1918,-0.5,1.24,-0.35,2.2,2022-03-04 10:05:16.590,1
92,1938,-1.07,2.13,-0.68,2.2,2022-03-04 10:05:16.689,1
93,1960,-0.73,1.77,-0.59,2.2,2022-03-04 10:05:16.798,1
94,1980,-0.38,0.48,-0.92,2.2,2022-03-04 10:05:16.897,1
95,2000,-0.43,0.67,0.56,2.2,2022-03-04 10:05:16.997,1
96,2020,-0.52,1.58,-0.28,2.2,2022-03-04 10:05:17.097,1
97,2044,-0.53,1.63,-0.49,6.8,2022-03-04 10:05:17.195,1
98,2064,-0.44,0.99,-0.45,6.8,2022-03-04 10:05:17.294,1
99,2084,-0.39,0.77,-0.46,6.8,2022-03-04 10:05:17.394,1
100,2104,-0.5,1.87,0.63,6.8,2022-03-04 10:05:17.493,1
101,2126,-0.99,2.05,-1.02,6.8,2022-03-04 10:05:17.592,1
102,2146,-0.57,1.65,-1.2,6.8,2022-03-04 10:05:17.694,1
103,2166,-0.84,1.35,-1.08,6.8,2022-03-04 10:05:17.791,1
104,2186,-0.45,1.78,-0.68,6.8,2022-03-04 10:05:17.890,1
105,2206,-0.75,1.75,-0.58,6.8,2022-03-04 10:05:17.990,1
106,2226,-0.93,1.41,-0.54,6.8,2022-03-04 10:05:18.089,1
107,2252,-0.58,1.16,-0.43,16.9,2022-03-04 10:05:18.199,1
108,2272,-0.44,1.21,-0.84,16.9,2022-03-04 10:05:18.297,1
109,2292,0.73,1.12,-0.39,16.9,2022-03-04 10:05:18.398,1
110,2312,0.56,0.78,0.69,16.9,2022-03-04 10:05:18.495,1
111,2334,-0.86,0.99,-0.63,16.9,2022-03-04 10:05:18.594,1
112,2354,-0.79,1.11,-0.47,16.9,2022-03-04 10:05:18.694,1
113,2374,-0.82,0.73,-0.63,16.9,2022-03-04 10:05:18.793,1
114,2394,-0.67,-0.4,0.77,16.9,2022-03-04 10:05:18.893,1
115,2414,-0.76,-0.77,-0.76,16.9,2022-03-04 10:05:18.992,1
116,2434,0.93,-1.02,-0.53,16.9,2022-03-04 10:05:19.091,1
117,2454,0.98,-0.89,-0.48,16.9,2022-03-04 10:05:19.191,1
118,2478,0.54,-0.87,-0.45,22.3,2022-03-04 10:05:19.290,1
119,2500,0.64,-0.71,-0.63,22.3,2022-03-04 10:05:19.399,1
120,2520,0.72,-0.75,-0.57,22.3,2022-03-04 10:05:19.499,1
121,2542,0.67,-1.15,0.58,22.3,2022-03-04 10:05:19.599,1
122,2562,0.31,-0.83,-0.81,22.3,2022-03-04 10:05:19.699,1
123,2582,0.56,-0.78,-0.44,22.3,2022-03-04 10:05:19.796,1
124,2602,-0.86,-0.68,-0.32,22.3,2022-03-04 10:05:19.895,1
125,2622,-0.5,0.32,0.68,22.3,2022-03-04 10:05:19.995,1
126,2642,0.56,0.55,-0.42,22.3,2022-03-04 10:05:20.094,1
127,2666,0.76,0.92,-0.7,25.6,2022-03-04 10:05:20.194,1
128,2686,0.47,-0.85,-0.74,25.6,2022-03-04 10:05:20.292,1
129,2706,-0.78,-0.65,-0.8,25.6,2022-03-04 10:05:20.391,1
130,2726,-0.76,1.09,0.75,25.6,2022-03-04 10:05:20.491,1
131,2748,-0.46,0.34,0.83,25.6,2022-03-04 10:05:20.590,1
132,2768,-0.63,0.69,0.53,25.6,2022-03-04 10:05:20.689,1
133,2790,-0.8,0.95,-0.84,25.6,2022-03-04 10:05:20.799,1
134,2810,-0.91,0.82,-0.97,25.6,2022-03-04 10:05:20.898,1
135,2830,-0.94,1.12,-0.88,25.6,2022-03-04 10:05:20.998,1
136,2850,-0.9,0.8,0.73,25.6,2022-03-04 10:05:21.097,1
137,2874,1.12,0.97,-1.51,26.6,2022-03-04 10:05:21.195,1
138,2894,-0.78,1.13,-0.7,26.6,2022-03-04 10:05:21.295,1
139,2914,-0.83,1.06,-1.07,26.6,2022-03-04 10:05:21.394,1
140,2934,-1.06,1.67,1.19,26.6,2022-03-04 10:05:21.494,1
141,2956,0.81,1.07,-1.53,26.6,2022-03-04 10:05:21.592,1
142,2976,-1.02,1.32,1.18,26.6,2022-03-04 10:05:21.692,1
143,2996,-1.0,1.21,0.99,26.6,2022-03-04 10:05:21.791,1
144,3016,-0.43,0.69,1.26,26.6,2022-03-04 10:05:21.890,1
145,3036,-0.75,0.61,1.11,26.6,2022-03-04 10:05:21.990,1
146,3056,-0.5,0.6,-1.02,26.6,2022-03-04 10:05:22.090,1
147,3082,-0.39,0.7,0.53,28.8,2022-03-04 10:05:22.199,1
148,3102,-0.62,0.38,-0.74,28.8,2022-03-04 10:05:22.297,1
149,3122,0.87,0.45,-0.79,28.8,2022-03-04 10:05:22.398,1
150,3142,0.65,0.41,-0.95,28.8,2022-03-04 10:05:22.497,1
151,3164,-1.02,0.45,1.03,28.8,2022-03-04 10:05:22.597,1
152,3184,0.43,0.5,-0.82,28.8,2022-03-04 10:05:22.697,1
153,3204,1.25,0.8,-0.98,28.8,2022-03-04 10:05:22.793,1
154,3224,1.27,0.63,1.35,28.8,2022-03-04 10:05:22.893,1
155,3244,0.98,0.47,-1.0,28.8,2022-03-04 10:05:22.992,1
156,3264,1.09,0.59,1.07,28.8,2022-03-04 10:05:23.093,1
157,3284,0.76,-1.0,-1.03,28.8,2022-03-04 10:05:23.191,1
158,3308,0.95,-1.46,-0.8,32.4,2022-03-04 10:05:23.291,1
159,3328,0.98,-1.12,-1.04,32.4,2022-03-04 10:05:23.389,1
160,3350,0.56,-1.09,-1.85,32.4,2022-03-04 10:05:23.498,1
161,3372,-0.55,-1.14,1.06,32.4,2022-03-04 10:05:23.598,1
162,3392,0.89,-1.43,1.21,32.4,2022-03-04 10:05:23.698,1
163,3412,1.27,-1.73,-1.75,32.4,2022-03-04 10:05:23.796,1
164,3432,-1.18,-1.37,3.13,32.4,2022-03-04 10:05:23.897,1
165,3452,0.71,-1.2,-1.05,32.4,2022-03-04 10:05:23.996,1
166,3472,-1.8,-0.9,-1.62,32.4,2022-03-04 10:05:24.094,1
167,3494,-0.99,0.69,-1.86,34.6,2022-03-04 10:05:24.195,1
168,3516,0.96,0.67,0.65,34.6,2022-03-04 10:05:24.292,1
169,3536,-0.83,-0.76,0.55,34.6,2022-03-04 10:05:24.391,1
170,3556,-1.12,0.77,-0.45,34.6,2022-03-04 10:05:24.491,1
171,3578,0.31,-0.36,0.72,34.6,2022-03-04 10:05:24.590,1
172,3600,-0.72,0.62,-0.75,34.6,2022-03-04 10:05:24.699,1
173,3620,0.42,0.74,-1.08,34.6,2022-03-04 10:05:24.799,1
174,3640,-0.84,0.6,-0.76,34.6,2022-03-04 10:05:24.899,1
175,3660,0.61,0.75,0.61,34.6,2022-03-04 10:05:24.997,1
176,3680,-0.78,0.43,-0.71,34.6,2022-03-04 10:05:25.097,1
177,3704,-0.69,0.69,1.14,35.3,2022-03-04 10:05:25.197,1
178,3724,-0.86,0.76,0.63,35.3,2022-03-04 10:05:25.295,1
179,3744,0.65,0.8,-0.77,35.3,2022-03-04 10:05:25.396,1
180,3764,-1.09,0.63,-1.75,35.3,2022-03-04 10:05:25.497,1
181,3786,-1.36,0.75,1.97,35.3,2022-03-04 10:05:25.593,1
182,3806,0.6,0.74,-1.19,35.3,2022-03-04 10:05:25.692,1
183,3826,-1.61,1.07,1.78,35.3,2022-03-04 10:05:25.795,1
184,3846,-1.42,0.9,2.03,35.3,2022-03-04 10:05:25.891,1
185,3868,-1.39,0.88,-1.76,35.3,2022-03-04 10:05:25.999,1
186,3886,0.86,0.58,-1.67,35.3,2022-03-04 10:05:26.090,1
187,3912,-1.33,0.55,1.32,36.7,2022-03-04 10:05:26.199,1
188,3932,-0.66,0.55,-0.65,36.7,2022-03-04 10:05:26.298,1
189,3952,-1.08,0.45,-1.02,36.7,2022-03-04 10:05:26.399,1
190,3972,-1.4,-0.43,0.92,36.7,2022-03-04 10:05:26.497,1
191,3994,-1.15,0.81,1.82,36.7,2022-03-04 10:05:26.597,1
192,4014,-1.46,0.45,-1.04,36.7,2022-03-04 10:05:26.695,1
193,4034,-0.39,0.41,-1.11,36.7,2022-03-04 10:05:26.794,1
194,4054,0.88,0.65,-1.67,36.7,2022-03-04 10:05:26.894,1
195,4074,0.51,-0.72,-1.69,36.7,2022-03-04 10:05:26.994,1
196,4094,-0.59,-1.0,-1.12,36.7,2022-03-04 10:05:27.095,1
197,4118,-0.75,-0.91,1.18,39.6,2022-03-04 10:05:27.191,1
198,4138,0.97,-0.88,-0.6,39.6,2022-03-04 10:05:27.290,1
199,4160,1.05,-0.95,-1.36,39.6,2022-03-04 10:05:27.399,1
200,4180,0.64,-0.99,1.03,39.6,2022-03-04 10:05:27.499,1
201,4202,0.82,-1.2,-1.18,39.6,2022-03-04 10:05:27.598,1
202,4222,0.98,-1.04,-0.77,39.6,2022-03-04 10:05:27.699,1
203,4242,-0.85,-1.25,1.37,39.6,2022-03-04 10:05:27.798,1
204,4262,0.98,-0.94,0.94,39.6,2022-03-04 10:05:27.896,1
205,4282,-0.94,-1.18,-1.03,39.6,2022-03-04 10:05:27.996,1
206,4302,0.94,-1.09,0.75,39.6,2022-03-04 10:05:28.096,1
207,4326,0.94,-1.04,-1.42,39.6,2022-03-04 10:05:28.195,1
208,4346,0.88,-1.57,1.1,37.8,2022-03-04 10:05:28.294,1
209,4366,-0.98,-1.06,-1.88,37.8,2022-03-04 10:05:28.393,1
210,4386,0.81,-0.89,-1.43,37.8,2022-03-04 10:05:28.493,1
211,4408,-1.04,-1.01,0.94,37.8,2022-03-04 10:05:28.590,1
212,4430,1.09,-0.84,-1.81,37.8,2022-03-04 10:05:28.699,1
213,4450,0.63,-0.88,-1.77,37.8,2022-03-04 10:05:28.799,1
214,4470,0.86,-0.6,-1.04,37.8,2022-03-04 10:05:28.898,1
215,4490,-0.48,-0.51,-1.03,37.8,2022-03-04 10:05:28.997,1
216,4510,-0.51,-0.51,0.9,37.8,2022-03-04 10:05:29.098,1
217,4534,-1.13,-0.67,-1.09,40.0,2022-03-04 10:05:29.199,1
218,4554,0.81,0.3,-0.73,40.0,2022-03-04 10:05:29.295,1
219,4574,1.67,0.46,-0.56,40.0,2022-03-04 10:05:29.396,1
220,4594,-1.19,-0.51,-0.59,40.0,2022-03-04 10:05:29.495,1
221,4616,-0.54,-0.24,-1.29,40.0,2022-03-04 10:05:29.594,1
222,4636,0.51,-0.46,-1.16,40.0,2022-03-04 10:05:29.693,1
223,4656,-0.58,0.4,-0.75,40.0,2022-03-04 10:05:29.792,1
224,4676,0.99,0.38,-1.23,40.0,2022-03-04 10:05:29.892,1
225,4696,0.49,0.58,-0.93,40.0,2022-03-04 10:05:29.992,1
226,4716,-1.35,0.71,-0.61,40.0,2022-03-04 10:05:30.089,1
227,4740,0.95,-0.6,-1.13,42.8,2022-03-04 10:05:30.189,1
228,4762,1.14,0.56,-0.94,42.8,2022-03-04 10:05:30.298,1
229,4782,1.26,0.7,-1.53,42.8,2022-03-04 10:05:30.397,1
230,4802,-0.95,0.5,-1.42,42.8,2022-03-04 10:05:30.497,1
231,4824,1.1,0.5,1.41,42.8,2022-03-04 10:05:30.596,1
232,4844,0.71,-0.56,1.74,42.8,2022-03-04 10:05:30.695,1
233,4864,0.82,0.63,-1.23,42.8,2022-03-04 10:05:30.796,1
234,4884,1.04,-0.6,1.34,42.8,2022-03-04 10:05:30.894,1
235,4904,-0.79,1.16,-1.51,42.8,2022-03-04 10:05:30.994,1
236,4924,-0.74,0.51,-1.26,42.8,2022-03-04 10:05:31.093,1
237,4948,-0.75,0.79,-1.3,45.7,2022-03-04 10:05:31.192,1
238,4968,0.9,-0.48,-1.12,45.7,2022-03-04 10:05:31.291,1
239,4988,-1.06,-0.46,-1.49,45.7,2022-03-04 10:05:31.391,1
240,5010,-0.67,-0.51,1.11,45.7,2022-03-04 10:05:31.499,1
241,5032,-0.75,-0.39,-0.59,45.7,2022-03-04 10:05:31.598,1
242,5052,-1.0,-0.42,-1.58,45.7,2022-03-04 10:05:31.697,1
243,5072,-0.94,-0.31,0.51,45.7,2022-03-04 10:05:31.797,1
244,5092,-0.8,-0.62,0.93,45.7,2022-03-04 10:05:31.896,1
245,5112,-0.47,-0.91,-1.78,45.7,2022-03-04 10:05:31.995,1
246,5132,1.27,-0.54,-2.03,45.7,2022-03-04 10:05:32.097,1
247,5156,0.91,-0.71,-2.25,47.9,2022-03-04 10:05:32.194,1
248,5176,1.33,-0.72,2.38,47.9,2022-03-04 10:05:32.294,1
249,5196,1.99,0.67,2.6,47.9,2022-03-04 10:05:32.393,1
250,5216,1.06,-0.62,1.49,47.9,2022-03-04 10:05:32.494,10
251,5238,0.87,-0.6,-1.78,47.9,2022-03-04 10:05:32.593,10
252,5258,-0.61,-0.43,-1.14,47.9,2022-03-04 10:05:32.691,10
253,5280,-1.39,-0.63,-1.62,47.9,2022-03-04 10:05:32.799,10
254,5300,0.51,-0.73,-1.91,47.9,2022-03-04 10:05:32.899,10
255,5318,0.64,-0.55,1.73,47.9,2022-03-04 10:05:32.992,10
256,5340,-1.17,-0.62,1.71,47.9,2022-03-04 10:05:33.098,10
257,5364,0.91,-0.59,1.43,49.3,2022-03-04 10:05:33.196,10
258,5384,-0.75,-0.58,-1.58,49.3,2022-03-04 10:05:33.298,10
259,5404,-0.6,-0.68,-1.37,49.3,2022-03-04 10:05:33.395,10
260,5424,0.72,-0.73,-1.24,49.3,2022-03-04 10:05:33.494,10
261,5446,1.36,-1.12,-1.45,49.3,2022-03-04 10:05:33.593,10
262,5466,0.96,-0.73,-0.65,49.3,2022-03-04 10:05:33.693,10
263,5486,1.04,-1.35,-1.49,49.3,2022-03-04 10:05:33.793,10
264,5506,0.37,-0.89,0.91,49.3,2022-03-04 10:05:33.894,10
265,5526,0.97,-0.9,-0.69,49.3,2022-03-04 10:05:33.991,10
266,5546,-0.86,-0.74,0.78,49.3,2022-03-04 10:05:34.091,10
267,5572,0.94,-0.92,-1.45,50.0,2022-03-04 10:05:34.199,10
268,5592,0.72,-0.78,-1.11,50.0,2022-03-04 10:05:34.298,10
269,5612,-0.71,-1.0,-1.22,50.0,2022-03-04 10:05:34.398,10
270,5632,0.85,-0.82,0.89,50.0,2022-03-04 10:05:34.497,4
271,5654,0.7,-0.65,-0.6,50.0,2022-03-04 10:05:34.598,4
272,5674,-0.58,-0.71,-1.05,50.0,2022-03-04 10:05:34.696,4
273,5694,0.98,-0.98,1.12,50.0,2022-03-04 10:05:34.795,4
274,5714,0.77,-1.24,-1.49,50.0,2022-03-04 10:05:34.896,4
275,5734,0.46,-1.26,-1.22,50.0,2022-03-04 10:05:34.995,4
276,5754,1.05,-1.33,1.6,50.0,2022-03-04 10:05:35.099,4
277,5778,0.93,-1.38,-0.58,50.0,2022-03-04 10:05:35.195,4
278,5798,0.64,-1.62,-0.52,49.7,2022-03-04 10:05:35.296,4
279,5818,0.56,-1.51,-1.06,49.7,2022-03-04 10:05:35.395,4
280,5838,0.59,-1.62,-0.63,49.7,2022-03-04 10:05:35.497,4
281,5862,0.74,-1.35,0.74,49.7,2022-03-04 10:05:35.598,4
282,5882,0.68,-1.33,-1.04,49.7,2022-03-04 10:05:35.698,4
283,5902,1.08,-1.6,-0.68,49.7,2022-03-04 10:05:35.798,4
284,5922,1.0,-1.78,-0.54,49.7,2022-03-04 10:05:35.896,4
285,5942,1.35,-1.48,-0.55,49.7,2022-03-04 10:05:35.996,4
286,5962,0.58,-1.64,-0.78,49.7,2022-03-04 10:05:36.099,4
287,5986,1.02,-1.54,-0.97,49.7,2022-03-04 10:05:36.194,4
288,6006,1.13,-1.56,0.62,47.9,2022-03-04 10:05:36.293,4
289,6026,0.85,-1.5,-0.56,47.9,2022-03-04 10:05:36.394,4
290,6046,0.91,-1.63,0.56,47.9,2022-03-04 10:05:36.492,4
291,6068,0.69,-1.46,-0.69,47.9,2022-03-04 10:05:36.592,4
292,6088,1.32,-1.46,-0.75,47.9,2022-03-04 10:05:36.691,4
293,6110,0.64,-1.62,-1.07,47.9,2022-03-04 10:05:36.799,4
294,6130,0.63,-1.58,-0.74,47.9,2022-03-04 10:05:36.898,4
295,6150,0.63,-1.4,0.64,47.9,2022-03-04 10:05:36.998,4
296,6170,-0.57,-1.22,-0.74,47.9,2022-03-04 10:05:37.097,4
297,6194,0.8,-1.44,-0.62,47.9,2022-03-04 10:05:37.196,4
298,6214,0.36,-1.38,-0.83,45.4,2022-03-04 10:05:37.296,4
299,6234,0.63,-1.37,-0.57,45.4,2022-03-04 10:05:37.399,4
300,6254,0.94,-1.61,-0.92,45.4,2022-03-04 10:05:37.495,4
301,6276,0.83,-1.52,-0.61,45.4,2022-03-04 10:05:37.594,4
302,6296,0.5,-1.42,0.82,45.4,2022-03-04 10:05:37.693,4
303,6316,0.61,-1.49,-0.58,45.4,2022-03-04 10:05:37.792,4
304,6336,0.9,-1.66,-0.68,45.4,2022-03-04 10:05:37.892,4
305,6356,1.43,-1.46,0.73,45.4,2022-03-04 10:05:37.991,4
306,6376,0.96,-1.44,-0.82,45.4,2022-03-04 10:05:38.090,4
307,6402,-0.6,-1.44,-0.89,45.4,2022-03-04 10:05:38.199,4
308,6422,0.97,-1.47,-0.79,42.5,2022-03-04 10:05:38.299,4
309,6442,-0.49,-1.47,-0.35,42.5,2022-03-04 10:05:38.397,4
310,6462,0.78,-1.44,-0.65,42.5,2022-03-04 10:05:38.497,4
311,6484,0.84,-1.35,-0.51,42.5,2022-03-04 10:05:38.596,4
312,6504,0.43,-1.33,0.38,42.5,2022-03-04 10:05:38.695,4
313,6524,0.75,-1.51,-0.41,42.5,2022-03-04 10:05:38.795,4
314,6544,0.58,-1.48,0.88,42.5,2022-03-04 10:05:38.895,4
315,6564,0.7,-1.65,-0.62,42.5,2022-03-04 10:05:38.996,4
316,6584,0.82,-1.54,-0.78,42.5,2022-03-04 10:05:39.092,4
317,6604,0.91,-1.75,0.73,42.5,2022-03-04 10:05:39.193,4
318,6628,0.77,-1.7,-0.57,42.5,2022-03-04 10:05:39.291,4
319,6648,0.98,-1.68,0.58,37.8,2022-03-04 10:05:39.390,4
320,6668,0.87,-1.65,0.61,37.8,2022-03-04 10:05:39.490,4
321,6692,0.89,-1.68,0.85,37.8,2022-03-04 10:05:39.599,4
322,6712,0.99,-1.74,0.49,37.8,2022-03-04 10:05:39.698,4
323,6732,1.06,-1.81,-0.7,37.8,2022-03-04 10:05:39.797,4
324,6752,1.12,-1.66,-0.74,37.8,2022-03-04 10:05:39.896,4
325,6772,0.99,-1.6,0.47,37.8,2022-03-04 10:05:39.996,4
326,6792,1.12,-0.86,0.44,37.8,2022-03-04 10:05:40.095,4
327,6814,0.95,-0.59,-0.47,37.8,2022-03-04 10:05:40.196,4
328,6836,1.23,-0.78,-0.58,30.6,2022-03-04 10:05:40.293,4
329,6856,1.58,-0.57,-0.4,30.6,2022-03-04 10:05:40.392,4
330,6876,1.7,-0.72,0.57,30.6,2022-03-04 10:05:40.494,4
331,6898,1.83,-0.7,-0.58,30.6,2022-03-04 10:05:40.591,4
332,6918,1.66,-0.82,-0.6,30.6,2022-03-04 10:05:40.695,4
333,6938,1.53,-0.92,-0.55,30.6,2022-03-04 10:05:40.790,7
334,6958,1.21,-0.6,-0.67,30.6,2022-03-04 10:05:40.891,7
335,6980,1.13,0.41,-0.63,30.6,2022-03-04 10:05:40.998,7
336,7000,1.02,0.48,-0.42,30.6,2022-03-04 10:05:41.098,7
337,7024,0.77,0.42,0.44,30.6,2022-03-04 10:05:41.197,7
338,7044,0.97,0.49,0.47,27.0,2022-03-04 10:05:41.296,7
339,7064,-0.76,0.53,-0.57,27.0,2022-03-04 10:05:41.396,7
340,7084,-0.87,0.53,-0.62,27.0,2022-03-04 10:05:41.495,7
341,7106,-0.89,0.5,-0.46,27.0,2022-03-04 10:05:41.594,7
342,7126,-1.09,0.49,-0.47,27.0,2022-03-04 10:05:41.693,7
343,7146,-1.21,0.37,-0.41,27.0,2022-03-04 10:05:41.792,7
344,7166,-1.35,0.5,-0.86,27.0,2022-03-04 10:05:41.892,7
345,7186,-1.13,0.61,-0.72,27.0,2022-03-04 10:05:41.992,7
346,7206,-1.47,0.52,-0.36,27.0,2022-03-04 10:05:42.091,7
347,7230,-1.74,0.48,0.87,27.0,2022-03-04 10:05:42.190,7
348,7250,-2.19,0.61,0.74,24.8,2022-03-04 10:05:42.290,7
349,7270,-2.3,0.37,-0.55,24.8,2022-03-04 10:05:42.388,7
350,7290,-2.67,0.36,-0.38,24.8,2022-03-04 10:05:42.488,7
351,7312,-2.69,0.45,-0.21,24.8,2022-03-04 10:05:42.588,7
352,7334,-2.9,0.5,0.39,24.8,2022-03-04 10:05:42.696,7
353,7354,-2.58,0.32,-0.43,24.8,2022-03-04 10:05:42.795,7
354,7374,-2.5,0.31,-0.34,24.8,2022-03-04 10:05:42.894,7
355,7394,-2.97,-0.26,0.56,24.8,2022-03-04 10:05:42.993,7
356,7414,-3.48,-0.16,0.58,24.8,2022-03-04 10:05:43.093,7
357,7438,-3.11,-0.37,-0.38,24.8,2022-03-04 10:05:43.192,7
358,7458,-2.96,-0.3,-0.64,21.6,2022-03-04 10:05:43.291,7
359,7478,-3.27,-0.37,0.58,21.6,2022-03-04 10:05:43.391,7
360,7498,-3.54,-0.59,0.64,21.6,2022-03-04 10:05:43.490,7
361,7520,-3.56,-0.56,-0.68,21.6,2022-03-04 10:05:43.589,7
362,7540,-3.57,-0.6,-0.25,21.6,2022-03-04 10:05:43.690,7
363,7562,-3.97,-0.68,-0.42,21.6,2022-03-04 10:05:43.799,7
364,7582,-3.59,-0.74,0.49,21.6,2022-03-04 10:05:43.899,7
365,7602,-3.29,-0.68,0.6,21.6,2022-03-04 10:05:43.999,7
366,7622,-3.0,-0.71,-0.54,21.6,2022-03-04 10:05:44.096,7
367,7642,-3.08,-0.68,-0.31,21.6,2022-03-04 10:05:44.197,7
368,7666,-3.08,-0.81,-0.54,20.2,2022-03-04 10:05:44.294,7
369,7686,-2.92,-0.76,-0.39,20.2,2022-03-04 10:05:44.393,7
370,7706,-3.11,-0.81,-0.71,20.2,2022-03-04 10:05:44.493,7
371,7728,-2.39,-0.59,0.7,20.2,2022-03-04 10:05:44.592,7
372,7748,-2.77,-0.73,-0.85,20.2,2022-03-04 10:05:44.691,7
373,7768,-2.64,-0.78,-0.67,20.2,2022-03-04 10:05:44.790,7
374,7788,-3.07,-0.66,0.68,20.2,2022-03-04 10:05:44.890,7
375,7808,-2.36,-0.81,0.66,20.2,2022-03-04 10:05:44.989,7
376,7830,-2.46,-0.77,0.67,20.2,2022-03-04 10:05:45.098,7
377,7854,-2.5,-0.79,-0.36,20.2,2022-03-04 10:05:45.198,7
378,7874,-2.54,-0.83,0.22,19.1,2022-03-04 10:05:45.298,7
379,7894,-2.17,-0.71,0.56,19.1,2022-03-04 10:05:45.397,7
380,7914,-2.26,-0.72,0.72,19.1,2022-03-04 10:05:45.495,7
381,7936,-2.33,-0.82,0.63,19.1,2022-03-04 10:05:45.594,7
382,7956,-2.03,-0.93,0.64,19.1,2022-03-04 10:05:45.694,7
383,7976,-2.34,-0.93,-0.6,19.1,2022-03-04 10:05:45.793,7
384,7996,-2.26,-1.14,0.59,19.1,2022-03-04 10:05:45.892,7
385,8016,-2.28,-1.47,-0.48,19.1,2022-03-04 10:05:45.991,7
386,8036,-2.26,-1.43,-0.58,19.1,2022-03-04 10:05:46.090,7
387,8060,-2.42,-1.5,-0.69,19.1,2022-03-04 10:05:46.191,7
388,8080,-2.88,-1.61,0.63,18.0,2022-03-04 10:05:46.289,7
389,8102,-2.88,-1.47,0.43,18.0,2022-03-04 10:05:46.399,7
390,8122,-2.62,-1.75,-0.79,18.0,2022-03-04 10:05:46.498,7
391,8144,-3.05,-1.72,0.56,18.0,2022-03-04 10:05:46.598,7
392,8164,-2.68,-1.82,-0.65,18.0,2022-03-04 10:05:46.697,7
393,8184,-2.42,-1.8,0.53,18.0,2022-03-04 10:05:46.796,7
394,8204,-2.41,-1.83,-0.73,18.0,2022-03-04 10:05:46.895,7
395,8224,-2.86,-1.95,-0.85,18.0,2022-03-04 10:05:46.996,7
396,8244,-2.92,-1.88,1.22,18.0,2022-03-04 10:05:47.093,7
397,8264,-2.97,-2.08,-0.35,18.0,2022-03-04 10:05:47.192,7
398,8288,-3.2,-2.09,-0.65,18.0,2022-03-04 10:05:47.291,7
399,8308,-2.92,-2.01,0.95,18.0,2022-03-04 10:05:47.391,7
400,8328,-3.31,-2.09,-0.53,18.0,2022-03-04 10:05:47.490,7
401,8350,-3.58,-2.0,1.21,18.0,2022-03-04 10:05:47.591,7
402,8370,-3.87,-1.93,1.26,18.0,2022-03-04 10:05:47.690,7
403,8392,-3.18,-2.02,0.82,18.0,2022-03-04 10:05:47.798,7
404,8412,-3.52,-2.11,0.62,18.0,2022-03-04 10:05:47.898,7
405,8432,-3.2,-2.09,0.49,18.0,2022-03-04 10:05:47.997,7
406,8452,-3.41,-2.08,-1.27,18.0,2022-03-04 10:05:48.099,7
407,8472,-3.52,-2.23,-0.89,20.2,2022-03-04 10:05:48.191,7
408,8496,-3.93,-2.0,0.71,20.2,2022-03-04 10:05:48.295,7
409,8516,-3.13,-1.8,0.7,20.2,2022-03-04 10:05:48.393,7
410,8536,-3.35,-1.87,1.52,20.2,2022-03-04 10:05:48.493,7
411,8558,-2.68,-1.85,-0.62,20.2,2022-03-04 10:05:48.592,7
412,8578,-3.45,-1.75,0.62,20.2,2022-03-04 10:05:48.691,7
413,8598,-3.62,-1.7,0.75,20.2,2022-03-04 10:05:48.792,7
414,8618,-2.75,-1.61,1.29,20.2,2022-03-04 10:05:48.890,7
415,8638,-2.12,-1.57,1.02,20.2,2022-03-04 10:05:48.989,7
416,8658,-1.76,-1.39,0.9,20.2,2022-03-04 10:05:49.088,7
417,8680,-1.25,-1.45,-0.75,20.2,2022-03-04 10:05:49.190,7
418,8704,-1.16,-1.56,1.2,19.1,2022-03-04 10:05:49.298,7
419,8724,-0.84,-1.27,-0.89,19.1,2022-03-04 10:05:49.397,7
420,8744,-0.72,-1.09,-0.79,19.1,2022-03-04 10:05:49.497,7
421,8766,-1.0,-0.99,0.6,19.1,2022-03-04 10:05:49.596,7
422,8786,-0.68,-0.96,-0.67,19.1,2022-03-04 10:05:49.695,7
423,8806,-0.86,-0.94,-0.32,19.1,2022-03-04 10:05:49.793,7
424,8826,-1.06,-0.85,-0.67,19.1,2022-03-04 10:05:49.893,7
425,8846,-0.54,-0.92,-0.54,19.1,2022-03-04 10:05:49.993,7
426,8866,0.34,-0.76,-0.56,19.1,2022-03-04 10:05:50.093,7
427,8886,0.48,-0.8,-0.28,19.1,2022-03-04 10:05:50.190,7
428,8912,1.01,-0.92,-0.65,19.4,2022-03-04 10:05:50.299,7
429,8932,1.12,-0.91,0.28,19.4,2022-03-04 10:05:50.398,7
430,8952,1.77,-0.98,-0.56,19.4,2022-03-04 10:05:50.499,7
431,8974,1.52,-0.93,-0.45,19.4,2022-03-04 10:05:50.598,7
432,8994,0.97,-0.93,-0.59,19.4,2022-03-04 10:05:50.697,7
433,9014,1.15,-0.83,-0.58,19.4,2022-03-04 10:05:50.796,7
434,9034,1.11,-0.83,-0.95,19.4,2022-03-04 10:05:50.896,7
435,9054,1.42,-0.8,-0.33,19.4,2022-03-04 10:05:50.994,7
436,9074,1.61,-0.91,-0.79,19.4,2022-03-04 10:05:51.095,7
437,9098,1.68,-0.76,-0.51,22.7,2022-03-04 10:05:51.194,7
438,9118,1.46,-0.57,-0.52,22.7,2022-03-04 10:05:51.295,7
439,9138,1.32,-0.7,0.36,22.7,2022-03-04 10:05:51.391,7
440,9158,1.1,-0.56,0.79,22.7,2022-03-04 10:05:51.491,7
441,9180,1.12,-0.68,1.19,22.7,2022-03-04 10:05:51.591,7
442,9202,1.31,-0.89,-0.92,22.7,2022-03-04 10:05:51.699,7
443,9222,1.86,-0.94,1.23,22.7,2022-03-04 10:05:51.798,7
444,9242,2.63,-0.56,1.05,22.7,2022-03-04 10:05:51.898,7
445,9262,1.24,-0.53,-0.8,22.7,2022-03-04 10:05:51.998,7
446,9282,1.16,-0.96,-1.18,22.7,2022-03-04 10:05:52.097,7
447,9306,1.44,-1.07,-0.97,24.1,2022-03-04 10:05:52.196,7
448,9326,1.33,-0.64,0.78,24.1,2022-03-04 10:05:52.295,7
449,9346,1.18,-0.74,-0.46,24.1,2022-03-04 10:05:52.394,7
450,9366,1.32,-0.56,-0.65,24.1,2022-03-04 10:05:52.494,1
451,9388,1.2,-0.99,-0.8,24.1,2022-03-04 10:05:52.594,1
452,9408,1.18,-0.49,1.05,24.1,2022-03-04 10:05:52.693,1
453,9428,1.16,0.27,-0.64,24.1,2022-03-04 10:05:52.791,1
454,9448,0.91,0.28,-0.51,24.1,2022-03-04 10:05:52.890,1
455,9470,1.5,-0.46,-0.9,24.1,2022-03-04 10:05:52.999,1
456,9490,1.43,-0.36,0.72,24.1,2022-03-04 10:05:53.099,1
457,9510,1.24,-0.38,-0.7,24.1,2022-03-04 10:05:53.198,1
458,9534,0.94,0.43,-0.71,25.6,2022-03-04 10:05:53.297,1
459,9554,0.99,-0.39,1.06,25.6,2022-03-04 10:05:53.399,1
460,9574,1.1,-0.38,0.69,25.6,2022-03-04 10:05:53.497,1
461,9596,0.8,-0.28,-0.71,25.6,2022-03-04 10:05:53.595,1
462,9616,1.08,-0.32,0.58,25.6,2022-03-04 10:05:53.696,1
463,9636,1.14,-0.37,-0.53,25.6,2022-03-04 10:05:53.794,1
464,9656,0.89,-0.53,-1.26,25.6,2022-03-04 10:05:53.893,1
465,9676,1.31,-0.41,0.7,25.6,2022-03-04 10:05:53.993,1
466,9696,0.72,-0.43,0.65,25.6,2022-03-04 10:05:54.095,1
467,9720,1.03,-0.42,-0.86,27.4,2022-03-04 10:05:54.192,1
468,9740,0.68,-0.43,1.12,27.4,2022-03-04 10:05:54.289,1
469,9762,0.8,-0.42,0.98,27.4,2022-03-04 10:05:54.399,1
470,9782,0.76,0.37,0.78,27.4,2022-03-04 10:05:54.499,1
471,9804,1.16,-0.59,-0.9,27.4,2022-03-04 10:05:54.598,1
472,9824,1.0,-0.27,0.91,27.4,2022-03-04 10:05:54.697,1
473,9844,0.9,-0.49,1.33,27.4,2022-03-04 10:05:54.796,1
474,9864,1.28,-0.37,0.77,27.4,2022-03-04 10:05:54.895,1
475,9884,0.82,-0.51,0.93,27.4,2022-03-04 10:05:54.995,1
476,9904,0.44,-0.55,0.86,27.4,2022-03-04 10:05:55.095,1
477,9928,0.78,-0.58,1.29,29.2,2022-03-04 10:05:55.197,1
478,9948,1.1,-0.46,1.18,29.2,2022-03-04 10:05:55.293,1
479,9968,0.64,-1.33,0.27,29.2,2022-03-04 10:05:55.392,1
480,9988,0.84,-1.38,-0.61,29.2,2022-03-04 10:05:55.491,1
481,10008,0.68,-1.1,0.7,29.2,2022-03-04 10:05:55.581,1
482,10032,0.7,-1.3,-0.64,29.2,2022-03-04 10:05:55.699,1
483,10048,0.57,-1.07,-0.46,29.2,2022-03-04 10:05:55.779,1
484,10072,0.84,-1.28,-0.89,29.2,2022-03-04 10:05:55.898,1
485,10092,-1.08,-1.31,-1.01,29.2,2022-03-04 10:05:55.997,1
486,10112,0.97,-1.23,0.28,29.2,2022-03-04 10:05:56.096,1
487,10136,0.85,-1.04,0.94,29.2,2022-03-04 10:05:56.195,1
488,10156,0.8,-0.89,0.62,29.2,2022-03-04 10:05:56.295,1
489,10176,1.03,-0.57,-0.55,29.2,2022-03-04 10:05:56.394,1
490,10196,0.37,-0.49,-0.62,29.2,2022-03-04 10:05:56.494,1
491,10218,0.53,0.27,0.74,29.2,2022-03-04 10:05:56.593,1
492,10238,-0.82,-0.49,-0.54,29.2,2022-03-04 10:05:56.694,1
493,10258,-0.37,-0.41,-0.4,29.2,2022-03-04 10:05:56.792,1
494,10278,-0.95,-0.42,0.58,29.2,2022-03-04 10:05:56.891,1
495,10298,0.6,-0.53,-0.6,29.2,2022-03-04 10:05:56.991,1
496,10318,0.44,0.31,-0.68,29.2,2022-03-04 10:05:57.092,1
497,10344,0.57,0.31,0.8,31.0,2022-03-04 10:05:57.198,1
498,10364,0.85,0.34,0.83,31.0,2022-03-04 10:05:57.297,1
499,10384,0.5,0.28,-0.88,31.0,2022-03-04 10:05:57.397,1
500,10404,0.65,0.34,-1.06,31.0,2022-03-04 10:05:57.496,1
501,10426,0.74,0.2,-0.61,31.0,2022-03-04 10:05:57.597,1
502,10446,-0.99,-0.41,0.86,31.0,2022-03-04 10:05:57.697,1
503,10466,-1.45,0.41,-1.03,31.0,2022-03-04 10:05:57.798,1
504,10484,-0.78,0.49,0.75,31.0,2022-03-04 10:05:57.883,1
505,10506,-0.63,0.24,0.62,31.0,2022-03-04 10:05:57.992,1
506,10526,0.45,0.43,0.72,31.0,2022-03-04 10:05:58.092,1
507,10548,0.68,0.58,-0.7,33.8,2022-03-04 10:05:58.197,1
508,10570,-0.73,0.45,0.91,33.8,2022-03-04 10:05:58.290,1
509,10592,0.81,0.49,-1.08,33.8,2022-03-04 10:05:58.399,1
510,10612,-0.86,0.63,-1.42,33.8,2022-03-04 10:05:58.499,1
511,10634,-0.47,0.68,-1.26,33.8,2022-03-04 10:05:58.598,1
512,10654,-0.7,0.7,1.43,33.8,2022-03-04 10:05:58.697,1
513,10674,-0.48,0.6,-0.7,33.8,2022-03-04 10:05:58.796,1
514,10694,0.56,-0.53,0.97,33.8,2022-03-04 10:05:58.896,1
515,10714,0.99,-0.29,1.35,33.8,2022-03-04 10:05:58.995,1
516,10734,0.46,-0.36,0.72,33.8,2022-03-04 10:05:59.094,1
517,10758,0.78,-0.64,-0.53,35.6,2022-03-04 10:05:59.193,1
518,10778,0.43,-0.69,0.88,35.6,2022-03-04 10:05:59.293,1
519,10798,0.59,-0.55,-1.16,35.6,2022-03-04 10:05:59.392,1
520,10818,-0.81,-0.42,-1.31,35.6,2022-03-04 10:05:59.492,1
521,10840,0.85,-0.43,-0.9,35.6,2022-03-04 10:05:59.591,1
522,10862,0.89,-0.47,0.89,35.6,2022-03-04 10:05:59.699,1
523,10882,0.44,-0.67,-0.82,35.6,2022-03-04 10:05:59.798,1
524,10902,-0.83,-0.51,-0.6,35.6,2022-03-04 10:05:59.898,1
525,10922,0.96,-0.58,0.64,35.6,2022-03-04 10:05:59.997,1
526,10942,0.61,-0.73,-0.31,35.6,2022-03-04 10:06:00.098,1
527,10960,1.04,-0.63,-0.96,35.6,2022-03-04 10:06:00.188,1
528,10986,1.14,-0.41,0.99,37.4,2022-03-04 10:06:00.295,1
529,11006,0.81,-0.79,1.28,37.4,2022-03-04 10:06:00.394,1
530,11026,1.19,-0.5,-0.88,37.4,2022-03-04 10:06:00.494,1
531,11048,0.39,-0.53,-0.79,37.4,2022-03-04 10:06:00.593,1
532,11068,1.19,-0.4,0.62,37.4,2022-03-04 10:06:00.693,1
533,11088,0.93,-0.42,-0.67,37.4,2022-03-04 10:06:00.793,1
534,11108,1.42,-0.5,-1.31,37.4,2022-03-04 10:06:00.892,1
535,11128,-0.76,0.42,1.02,37.4,2022-03-04 10:06:00.990,1
536,11148,-0.58,-0.29,0.5,37.4,2022-03-04 10:06:01.090,1
537,11174,-1.01,-0.53,-1.06,38.9,2022-03-04 10:06:01.198,1
538,11194,0.98,-0.4,-1.26,38.9,2022-03-04 10:06:01.298,1
539,11214,0.88,-0.26,-0.51,38.9,2022-03-04 10:06:01.397,1
540,11234,0.7,-0.42,-0.84,38.9,2022-03-04 10:06:01.497,1
541,11256,-1.22,-0.41,-0.54,38.9,2022-03-04 10:06:01.596,1
542,11276,0.74,-0.38,-0.99,38.9,2022-03-04 10:06:01.695,1
543,11296,0.83,-0.41,-0.67,38.9,2022-03-04 10:06:01.794,1
544,11316,0.58,-0.66,-0.7,38.9,2022-03-04 10:06:01.893,1
545,11336,0.6,-0.5,-0.86,38.9,2022-03-04 10:06:01.993,1
546,11356,0.84,-0.86,0.9,38.9,2022-03-04 10:06:02.092,1
547,11378,-1.08,-0.69,-1.24,40.3,2022-03-04 10:06:02.193,1
548,11400,-1.29,-0.65,-1.45,40.3,2022-03-04 10:06:02.290,1
549,11420,-0.93,-1.1,-0.5,40.3,2022-03-04 10:06:02.390,1
550,11442,1.27,-1.01,-0.85,40.3,2022-03-04 10:06:02.499,1
551,11462,0.82,-1.15,-0.54,40.3,2022-03-04 10:06:02.589,1
552,11484,-0.93,-0.97,-0.4,40.3,2022-03-04 10:06:02.697,1
553,11504,1.06,-1.15,0.66,40.3,2022-03-04 10:06:02.796,1
554,11524,0.35,-1.18,0.47,40.3,2022-03-04 10:06:02.896,1
555,11544,0.99,-1.02,-0.81,40.3,2022-03-04 10:06:02.995,1
556,11564,0.54,-0.95,-0.61,40.3,2022-03-04 10:06:03.094,1
557,11588,0.74,-1.1,-0.69,40.3,2022-03-04 10:06:03.195,1
558,11608,0.46,-1.07,-1.12,40.3,2022-03-04 10:06:03.293,1
559,11628,0.74,-0.99,-0.81,40.3,2022-03-04 10:06:03.392,1
560,11648,0.73,-1.05,-0.68,40.3,2022-03-04 10:06:03.491,1
561,11670,0.9,-0.93,0.71,40.3,2022-03-04 10:06:03.590,1
562,11690,0.79,-0.81,0.71,40.3,2022-03-04 10:06:03.690,1
563,11710,0.83,-0.81,-0.58,40.3,2022-03-04 10:06:03.790,1
564,11732,0.82,-0.65,0.79,40.3,2022-03-04 10:06:03.898,1
565,11752,0.48,-0.53,-0.54,40.3,2022-03-04 10:06:03.998,1
566,11770,0.79,-0.33,-0.51,40.3,2022-03-04 10:06:04.088,1
567,11792,-0.72,-0.16,-1.05,40.3,2022-03-04 10:06:04.196,1
568,11816,0.5,0.41,1.19,40.3,2022-03-04 10:06:04.295,1
569,11836,-0.58,0.58,0.77,40.3,2022-03-04 10:06:04.395,1
570,11856,1.09,-0.71,-0.65,40.3,2022-03-04 10:06:04.495,1
571,11878,0.66,-0.44,1.02,40.3,2022-03-04 10:06:04.595,1
572,11898,0.59,-0.4,0.74,40.3,2022-03-04 10:06:04.693,1
573,11918,1.06,-0.43,-1.46,40.3,2022-03-04 10:06:04.792,1
574,11938,-0.71,-0.55,-1.11,40.3,2022-03-04 10:06:04.891,1
575,11958,0.92,-0.43,-1.25,40.3,2022-03-04 10:06:04.990,1
576,11978,0.66,0.46,-0.88,40.3,2022-03-04 10:06:05.090,1
577,12004,0.76,-0.36,0.69,42.1,2022-03-04 10:06:05.199,1
578,12024,0.58,0.42,-1.04,42.1,2022-03-04 10:06:05.298,1
579,12044,1.13,-0.39,-0.84,42.1,2022-03-04 10:06:05.398,1
580,12064,0.57,0.48,1.0,42.1,2022-03-04 10:06:05.496,1
581,12086,0.93,-0.62,-0.81,42.1,2022-03-04 10:06:05.596,1
582,12106,0.68,0.64,-0.9,42.1,2022-03-04 10:06:05.696,1
583,12126,-1.03,-0.28,-0.85,42.1,2022-03-04 10:06:05.794,1
584,12146,0.41,-0.47,-0.61,42.1,2022-03-04 10:06:05.894,1
585,12166,-0.57,0.41,-0.79,42.1,2022-03-04 10:06:05.992,1
586,12186,-0.82,0.44,-0.64,42.1,2022-03-04 10:06:06.092,1
587,12210,-0.78,-0.29,0.72,43.9,2022-03-04 10:06:06.191,1
588,12230,0.94,0.64,-0.62,43.9,2022-03-04 10:06:06.291,1
589,12250,-0.54,-0.29,-0.5,43.9,2022-03-04 10:06:06.390,1
590,12270,-0.56,0.48,-0.8,43.9,2022-03-04 10:06:06.489,1
591,12294,0.66,0.58,-0.73,43.9,2022-03-04 10:06:06.599,1
592,12314,-0.41,0.65,-0.94,43.9,2022-03-04 10:06:06.698,1
593,12334,-0.28,-0.34,-0.74,43.9,2022-03-04 10:06:06.797,1
594,12354,-0.46,-0.21,0.48,43.9,2022-03-04 10:06:06.896,1
595,12374,0.73,-0.51,-0.73,43.9,2022-03-04 10:06:06.996,4
596,12394,-0.42,-0.28,0.63,43.9,2022-03-04 10:06:07.094,4
597,12414,0.87,-0.56,0.39,43.9,2022-03-04 10:06:07.195,4
598,12438,0.48,-0.89,0.79,45.0,2022-03-04 10:06:07.295,4
599,12458,0.66,-0.57,-0.81,45.0,2022-03-04 10:06:07.394,4
600,12478,-0.24,-0.47,-0.63,45.0,2022-03-04 10:06:07.492,4
601,12500,0.3,-0.61,-0.54,45.0,2022-03-04 10:06:07.591,4
602,12520,0.27,-0.61,-0.61,45.0,2022-03-04 10:06:07.690,4
603,12540,0.54,-0.51,0.86,45.0,2022-03-04 10:06:07.790,4
604,12562,-0.51,-0.73,0.66,45.0,2022-03-04 10:06:07.899,4
605,12582,0.85,-0.62,-0.39,45.0,2022-03-04 10:06:07.999,4
606,12602,0.71,-0.75,0.88,45.0,2022-03-04 10:06:08.097,4
607,12626,0.54,-0.84,-0.5,45.4,2022-03-04 10:06:08.198,4
608,12646,0.35,-0.98,-0.71,45.4,2022-03-04 10:06:08.297,4
609,12666,0.69,-0.94,-0.52,45.4,2022-03-04 10:06:08.395,4
610,12686,0.47,-0.97,0.77,45.4,2022-03-04 10:06:08.494,4
611,12708,0.55,-0.98,-0.92,45.4,2022-03-04 10:06:08.594,4
612,12728,0.56,-0.87,-0.68,45.4,2022-03-04 10:06:08.693,4
613,12748,0.65,-0.92,-0.81,45.4,2022-03-04 10:06:08.793,4
614,12768,0.54,-0.94,-0.78,45.4,2022-03-04 10:06:08.892,4
615,12788,-0.37,-0.92,-0.86,45.4,2022-03-04 10:06:08.991,4
616,12808,0.9,-1.05,-0.89,45.4,2022-03-04 10:06:09.092,4
617,12834,0.8,-0.95,0.49,45.4,2022-03-04 10:06:09.199,4
618,12852,0.62,-1.0,0.53,44.6,2022-03-04 10:06:09.289,4
619,12874,0.94,-1.06,-0.72,44.6,2022-03-04 10:06:09.399,4
620,12894,0.5,-1.47,0.68,44.6,2022-03-04 10:06:09.497,4
621,12916,0.64,-1.38,-0.95,44.6,2022-03-04 10:06:09.596,4
622,12936,0.51,-1.42,1.02,44.6,2022-03-04 10:06:09.695,4
623,12956,-0.59,-1.23,-1.48,44.6,2022-03-04 10:06:09.795,4
624,12976,0.96,-1.48,0.92,44.6,2022-03-04 10:06:09.894,4
625,12996,0.75,-1.55,-0.99,44.6,2022-03-04 10:06:09.993,4
626,13016,1.58,-1.32,-1.21,44.6,2022-03-04 10:06:10.092,4
627,13040,-1.4,-1.57,-1.07,44.6,2022-03-04 10:06:10.192,4
628,13060,2.66,-1.37,-1.62,43.6,2022-03-04 10:06:10.291,4
629,13080,1.99,-1.4,-2.14,43.6,2022-03-04 10:06:10.390,4
630,13100,0.83,-1.36,-1.1,43.6,2022-03-04 10:06:10.490,4
631,13122,-0.62,-1.18,-0.53,43.6,2022-03-04 10:06:10.589,4
632,13142,0.76,-1.26,0.54,43.6,2022-03-04 10:06:10.688,4
633,13164,0.85,-1.25,1.1,43.6,2022-03-04 10:06:10.798,4
634,13184,0.61,-1.07,-1.1,43.6,2022-03-04 10:06:10.899,4
635,13204,0.84,-1.05,0.72,43.6,2022-03-04 10:06:10.996,4
636,13224,0.48,-1.17,-1.08,43.6,2022-03-04 10:06:11.095,4
637,13248,-0.34,-0.96,-0.82,43.6,2022-03-04 10:06:11.194,4
638,13268,-0.49,-1.06,0.53,42.5,2022-03-04 10:06:11.295,4
639,13288,-0.6,-0.95,0.7,42.5,2022-03-04 10:06:11.393,4
640,13308,0.43,-0.78,0.83,42.5,2022-03-04 10:06:11.492,4
641,13330,-0.66,-0.79,-0.7,42.5,2022-03-04 10:06:11.591,4
642,13350,-0.32,-1.0,0.35,42.5,2022-03-04 10:06:11.692,4
643,13370,0.44,-1.21,-0.52,42.5,2022-03-04 10:06:11.790,4
644,13390,0.34,-1.43,-0.88,42.5,2022-03-04 10:06:11.890,4
645,13410,-0.42,-1.31,-1.07,42.5,2022-03-04 10:06:11.989,4
646,13432,0.67,-1.31,0.82,42.5,2022-03-04 10:06:12.098,4
647,13456,-0.87,-1.3,0.82,42.5,2022-03-04 10:06:12.197,4
648,13476,1.07,-1.2,0.62,40.7,2022-03-04 10:06:12.297,4
649,13496,-0.34,-1.4,-0.56,40.7,2022-03-04 10:06:12.397,4
650,13516,0.77,-1.33,-0.91,40.7,2022-03-04 10:06:12.497,4
651,13538,0.77,-1.57,-1.03,40.7,2022-03-04 10:06:12.594,4
652,13558,-0.75,-1.35,-0.52,40.7,2022-03-04 10:06:12.693,4
653,13578,0.65,-1.57,0.83,40.7,2022-03-04 10:06:12.792,4
654,13598,0.63,-1.4,0.93,40.7,2022-03-04 10:06:12.891,4
655,13618,0.64,-1.49,-1.0,40.7,2022-03-04 10:06:12.991,4
656,13638,0.89,-1.54,0.83,40.7,2022-03-04 10:06:13.094,4
657,13660,0.61,-1.79,-1.05,40.7,2022-03-04 10:06:13.195,4
658,13684,0.27,-1.67,-1.05,37.8,2022-03-04 10:06:13.299,4
659,13704,0.55,-1.59,0.66,37.8,2022-03-04 10:06:13.399,4
660,13724,0.49,-1.7,0.71,37.8,2022-03-04 10:06:13.497,4
661,13746,-0.43,-1.53,-1.21,37.8,2022-03-04 10:06:13.598,4
662,13766,0.32,-1.51,-0.77,37.8,2022-03-04 10:06:13.697,4
663,13786,0.51,-1.6,0.46,37.8,2022-03-04 10:06:13.797,4
664,13806,0.59,-1.58,0.82,37.8,2022-03-04 10:06:13.896,4
665,13826,0.43,-1.52,-0.95,37.8,2022-03-04 10:06:13.995,4
666,13846,-0.5,-1.39,-0.82,37.8,2022-03-04 10:06:14.093,4
667,13870,0.55,-1.57,0.84,37.8,2022-03-04 10:06:14.192,4
668,13890,0.52,-1.55,0.38,33.1,2022-03-04 10:06:14.291,4
669,13910,0.42,-1.38,-0.69,33.1,2022-03-04 10:06:14.391,4
670,13930,-0.56,-1.52,-1.08,33.1,2022-03-04 10:06:14.490,4
671,13954,0.52,-1.5,-0.53,33.1,2022-03-04 10:06:14.599,4
672,13974,0.7,-1.4,1.06,33.1,2022-03-04 10:06:14.699,4
673,13994,0.38,-1.43,-0.81,33.1,2022-03-04 10:06:14.799,4
674,14014,0.44,-1.47,-0.71,33.1,2022-03-04 10:06:14.898,4
675,14034,0.38,-1.41,0.32,33.1,2022-03-04 10:06:14.997,4
676,14054,0.24,-1.44,-0.43,33.1,2022-03-04 10:06:15.096,4
677,14078,0.34,-1.6,-0.39,33.1,2022-03-04 10:06:15.196,4
678,14098,0.28,-1.31,-0.79,28.1,2022-03-04 10:06:15.295,4
679,14118,0.33,-1.36,-0.72,28.1,2022-03-04 10:06:15.395,4
680,14138,0.45,-1.36,0.47,28.1,2022-03-04 10:06:15.493,4
681,14160,0.41,-1.36,0.56,28.1,2022-03-04 10:06:15.591,4
682,14180,0.56,-1.45,-0.44,28.1,2022-03-04 10:06:15.691,4
683,14200,0.59,-1.29,0.54,28.1,2022-03-04 10:06:15.790,4
684,14220,0.3,-1.34,-1.04,28.1,2022-03-04 10:06:15.889,4
685,14240,-0.26,-1.23,-0.96,28.1,2022-03-04 10:06:15.989,4
686,14260,0.61,-1.25,0.46,28.1,2022-03-04 10:06:16.088,4
687,14286,0.52,-1.3,0.57,28.1,2022-03-04 10:06:16.197,4
688,14306,0.45,-1.12,0.34,23.0,2022-03-04 10:06:16.297,4
689,14326,0.46,-1.12,-0.66,23.0,2022-03-04 10:06:16.396,4
690,14346,-0.54,-0.68,-0.39,23.0,2022-03-04 10:06:16.499,4
691,14368,0.26,-0.52,-0.55,23.0,2022-03-04 10:06:16.596,4
692,14388,-0.25,-0.47,-0.61,23.0,2022-03-04 10:06:16.695,4
693,14408,-0.17,-0.57,-0.41,23.0,2022-03-04 10:06:16.794,4
694,14428,0.23,-0.42,0.56,23.0,2022-03-04 10:06:16.895,4
695,14448,0.37,-0.46,-0.37,23.0,2022-03-04 10:06:16.991,4
696,14468,0.2,-0.44,-0.59,23.0,2022-03-04 10:06:17.090,4
697,14492,0.3,-0.39,-0.49,23.0,2022-03-04 10:06:17.191,4
698,14514,-0.25,-0.32,-0.45,19.1,2022-03-04 10:06:17.299,4
699,14534,-0.32,-0.26,-0.3,19.1,2022-03-04 10:06:17.398,4
700,14554,0.3,-0.32,0.4,19.1,2022-03-04 10:06:17.497,4
701,14576,-0.33,-0.35,0.36,19.1,2022-03-04 10:06:17.597,4
702,14596,0.32,-0.27,-0.59,19.1,2022-03-04 10:06:17.696,4
703,14616,-0.29,-0.32,-0.52,19.1,2022-03-04 10:06:17.796,4
704,14636,0.38,-0.32,0.27,19.1,2022-03-04 10:06:17.895,4
705,14656,-0.3,-0.3,-0.54,19.1,2022-03-04 10:06:17.994,4
706,14676,-0.25,-0.41,-0.43,19.1,2022-03-04 10:06:18.096,4
707,14696,-0.25,-0.37,0.3,19.1,2022-03-04 10:06:18.194,4
708,14720,0.34,-0.48,-0.39,19.1,2022-03-04 10:06:18.292,4
709,14740,0.29,-0.56,-0.39,15.1,2022-03-04 10:06:18.392,4
710,14760,0.3,-0.66,-0.3,15.1,2022-03-04 10:06:18.490,4
711,14782,-0.28,-0.61,-0.36,15.1,2022-03-04 10:06:18.589,4
712,14804,0.33,-0.63,-0.41,15.1,2022-03-04 10:06:18.699,4
713,14824,0.32,-0.64,-0.29,15.1,2022-03-04 10:06:18.799,4
714,14844,0.21,-0.5,-0.48,15.1,2022-03-04 10:06:18.897,4
715,14864,0.14,-0.54,-0.36,15.1,2022-03-04 10:06:18.996,4
716,14882,0.13,-0.46,0.31,15.1,2022-03-04 10:06:19.086,4
717,14902,0.36,-0.51,-0.26,15.1,2022-03-04 10:06:19.186,4
718,14928,0.25,-0.41,-0.51,9.0,2022-03-04 10:06:19.295,4
719,14948,-0.35,-0.25,-0.44,9.0,2022-03-04 10:06:19.395,4
720,14968,-0.45,0.16,-0.15,9.0,2022-03-04 10:06:19.494,4
721,14990,0.21,0.19,-0.42,9.0,2022-03-04 10:06:19.596,4
722,15010,0.18,0.17,-0.34,9.0,2022-03-04 10:06:19.692,4
723,15030,0.25,0.21,0.21,9.0,2022-03-04 10:06:19.792,4
724,15050,-0.25,0.23,-0.26,9.0,2022-03-04 10:06:19.892,4
725,15072,-0.27,0.14,-0.29,9.0,2022-03-04 10:06:19.999,4
726,15090,-0.18,0.15,0.2,9.0,2022-03-04 10:06:20.088,4
727,15114,0.2,0.15,-0.2,9.0,2022-03-04 10:06:20.189,4
728,15136,-0.27,0.14,-0.34,4.7,2022-03-04 10:06:20.297,4
729,15156,-0.24,0.14,0.23,4.7,2022-03-04 10:06:20.396,4
730,15176,-0.29,0.1,-0.19,4.7,2022-03-04 10:06:20.496,4
731,15198,0.17,0.1,-0.33,4.7,2022-03-04 10:06:20.599,4
732,15218,-0.18,0.09,-0.27,4.7,2022-03-04 10:06:20.695,4
733,15238,-0.25,-0.09,-0.24,4.7,2022-03-04 10:06:20.795,4
734,15258,-0.2,0.09,-0.3,4.7,2022-03-04 10:06:20.892,4
735,15278,-0.17,-0.06,-0.21,4.7,2022-03-04 10:06:20.994,0
736,15298,0.14,0.11,-0.22,4.7,2022-03-04 10:06:21.092,0
737,15322,-0.26,0.75,-0.25,4.7,2022-03-04 10:06:21.195,0
738,15342,-0.32,1.15,-0.18,0.4,2022-03-04 10:06:21.290,0
739,15364,-0.33,1.31,-0.25,0.4,2022-03-04 10:06:21.398,0
740,15384,-0.3,1.36,-0.37,0.4,2022-03-04 10:06:21.499,0
741,15406,-0.32,1.1,-0.27,0.4,2022-03-04 10:06:21.597,0
742,15426,-0.2,0.87,-0.23,0.4,2022-03-04 10:06:21.696,0
743,15446,-0.29,0.8,-0.29,0.4,2022-03-04 10:06:21.797,0
744,15466,-0.27,0.91,-0.24,0.4,2022-03-04 10:06:21.896,0
745,15486,-0.28,1.0,-0.23,0.4,2022-03-04 10:06:21.995,0
746,15506,-0.32,0.96,-0.32,0.4,2022-03-04 10:06:22.095,0
747,15526,-0.31,0.88,-0.3,0.4,2022-03-04 10:06:22.193,0
748,15550,-0.23,0.89,-0.21,0.4,2022-03-04 10:06:22.292,0
749,15570,-0.27,0.95,-0.21,0.4,2022-03-04 10:06:22.391,0
750,15590,-0.22,0.88,-0.26,0.4,2022-03-04 10:06:22.492,0
751,15612,-0.27,0.88,-0.23,0.4,2022-03-04 10:06:22.590,0
752,15634,-0.29,0.85,-0.31,0.4,2022-03-04 10:06:22.699,0
753,15654,-0.2,0.83,-0.31,0.4,2022-03-04 10:06:22.798,0
754,15674,-0.3,0.86,-0.18,0.4,2022-03-04 10:06:22.897,0
755,15694,-0.27,0.84,-0.23,0.4,2022-03-04 10:06:22.997,0
756,15714,-0.25,0.83,-0.28,0.4,2022-03-04 10:06:23.096,0
757,15738,-0.29,0.79,-0.3,0.4,2022-03-04 10:06:23.196,0
758,15758,-0.19,0.79,-0.31,0.0,2022-03-04 10:06:23.295,0
759,15778,-0.29,0.78,-0.18,0.0,2022-03-04 10:06:23.394,0
760,15798,-0.24,0.77,-0.22,0.0,2022-03-04 10:06:23.493,0
761,15820,-0.21,0.76,-0.26,0.0,2022-03-04 10:06:23.594,0
762,15840,-0.28,0.7,-0.24,0.0,2022-03-04 10:06:23.692,0
763,15860,-0.25,0.8,-0.3,0.0,2022-03-04 10:06:23.791,0
764,15880,-0.18,0.72,-0.21,0.0,2022-03-04 10:06:23.891,0
765,15902,-0.27,0.72,-0.34,0.0,2022-03-04 10:06:23.999,0
766,15922,-0.19,0.72,-0.22,0.0,2022-03-04 10:06:24.099,0
767,15942,-0.19,0.61,-0.22,0.0,2022-03-04 10:06:24.198,0
768,15966,-0.26,0.59,-0.37,0.4,2022-03-04 10:06:24.298,0
769,15986,-0.26,0.53,-0.25,0.4,2022-03-04 10:06:24.397,0
770,16006,-0.2,0.48,-0.25,0.4,2022-03-04 10:06:24.496,0
771,16028,-0.25,0.46,-0.27,0.4,2022-03-04 10:06:24.595,0
772,16048,-0.2,0.41,-0.3,0.4,2022-03-04 10:06:24.694,0
773,16068,-0.25,0.44,-0.31,0.4,2022-03-04 10:06:24.794,0
774,16088,-0.16,0.39,-0.27,0.4,2022-03-04 10:06:24.893,0
775,16108,-0.24,0.38,-0.2,0.4,2022-03-04 10:06:24.993,0
776,16128,-0.19,0.3,-0.24,0.4,2022-03-04 10:06:25.094,0
777,16148,-0.22,0.29,-0.24,0.4,2022-03-04 10:06:25.192,0
778,16172,-0.15,0.31,-0.37,0.4,2022-03-04 10:06:25.290,0
779,16194,-0.17,0.26,-0.26,0.0,2022-03-04 10:06:25.398,0
780,16214,-0.23,0.27,-0.21,0.0,2022-03-04 10:06:25.498,0
781,16236,-0.14,0.2,-0.21,0.0,2022-03-04 10:06:25.597,0
782,16256,-0.23,0.22,-0.32,0.0,2022-03-04 10:06:25.696,0
783,16276,-0.17,0.23,-0.33,0.0,2022-03-04 10:06:25.796,0
784,16296,0.15,0.16,-0.3,0.0,2022-03-04 10:06:25.895,0
785,16316,-0.22,0.18,-0.25,0.0,2022-03-04 10:06:25.994,0
786,16336,-0.19,0.16,-0.24,0.0,2022-03-04 10:06:26.094,0
787,16360,-0.18,0.15,-0.3,0.0,2022-03-04 10:06:26.193,0
788,16380,-0.18,0.21,-0.34,0.0,2022-03-04 10:06:26.292,0
789,16400,0.16,0.17,-0.26,0.0,2022-03-04 10:06:26.392,0
790,16420,-0.2,0.17,-0.3,0.0,2022-03-04 10:06:26.493,0
791,16442,-0.2,0.15,-0.31,0.0,2022-03-04 10:06:26.590,0
792,16464,-0.2,0.16,-0.24,0.0,2022-03-04 10:06:26.699,0
793,16484,-0.17,0.15,-0.19,0.0,2022-03-04 10:06:26.798,0
794,16504,0.15,0.14,-0.32,0.0,2022-03-04 10:06:26.899,0
795,16524,-0.15,0.15,-0.26,0.0,2022-03-04 10:06:26.997,0
796,16544,0.16,0.14,-0.27,0.0,2022-03-04 10:06:27.097,0
797,16560,-0.23,0.13,-0.26,0.0,2022-03-04 10:06:27.168,0
