,LineNumber,Accel_X,Accel_Y,Accel_Z,Velocity,RealTime,Label
0,34,-0.22,0.14,-0.27,0.0,2022-03-04 11:25:51.096,0
1,54,-0.17,-0.1,-0.28,0.0,2022-03-04 11:25:51.194,0
2,74,-0.21,0.09,-0.32,0.0,2022-03-04 11:25:51.294,0
3,94,-0.2,0.09,-0.41,0.0,2022-03-04 11:25:51.393,0
4,114,-0.23,0.08,-0.23,0.0,2022-03-04 11:25:51.492,0
5,134,-0.22,0.11,-0.29,0.0,2022-03-04 11:25:51.591,0
6,156,-0.23,0.11,-0.21,0.0,2022-03-04 11:25:51.699,0
7,178,-0.22,0.06,-0.33,0.0,2022-03-04 11:25:51.790,0
8,200,-0.24,0.06,-0.22,0.0,2022-03-04 11:25:51.899,0
9,220,-0.24,0.11,-0.3,0.0,2022-03-04 11:25:51.997,0
10,242,-0.21,0.11,-0.23,0.0,2022-03-04 11:25:52.097,0
11,262,-0.19,0.05,-0.29,0.0,2022-03-04 11:25:52.196,0
12,282,-0.15,0.13,-0.21,0.0,2022-03-04 11:25:52.296,0
13,302,-0.27,0.08,-0.3,0.0,2022-03-04 11:25:52.395,0
14,322,-0.78,0.18,-0.43,0.0,2022-03-04 11:25:52.494,0
15,342,-0.22,-0.1,-0.31,0.0,2022-03-04 11:25:52.593,0
16,362,-0.23,-0.15,-0.33,0.0,2022-03-04 11:25:52.693,0
17,386,-0.28,-0.1,-0.29,0.0,2022-03-04 11:25:52.792,0
18,406,-0.37,0.14,-0.23,0.0,2022-03-04 11:25:52.891,0
19,426,0.34,0.24,-0.76,0.0,2022-03-04 11:25:52.992,0
20,448,-0.27,-0.17,-0.29,0.0,2022-03-04 11:25:53.091,0
21,468,-0.23,0.08,-0.16,0.0,2022-03-04 11:25:53.189,0
22,490,-0.19,0.12,-0.35,0.0,2022-03-04 11:25:53.298,0
23,510,-0.31,0.14,-0.38,0.0,2022-03-04 11:25:53.397,0
24,530,-0.22,0.13,-0.31,0.0,2022-03-04 11:25:53.496,3
25,550,-0.23,-0.07,-0.19,0.0,2022-03-04 11:25:53.596,3
26,570,-0.29,0.48,0.45,0.0,2022-03-04 11:25:53.695,3
27,594,-0.69,1.53,-0.59,0.0,2022-03-04 11:25:53.795,3
28,614,-0.91,2.18,0.92,0.0,2022-03-04 11:25:53.893,3
29,634,-0.8,2.75,-1.6,0.0,2022-03-04 11:25:53.993,3
30,656,-0.64,2.95,1.34,0.0,2022-03-04 11:25:54.092,3
31,676,-1.32,3.28,-1.39,0.0,2022-03-04 11:25:54.191,3
32,696,-1.08,3.89,1.51,0.0,2022-03-04 11:25:54.291,3
33,716,-1.42,3.77,2.74,0.0,2022-03-04 11:25:54.392,3
34,736,-1.28,4.4,-2.65,0.0,2022-03-04 11:25:54.490,3
35,758,-2.6,4.65,-2.9,0.0,2022-03-04 11:25:54.598,3
36,778,-2.27,2.86,-2.28,0.0,2022-03-04 11:25:54.698,3
37,802,-0.52,2.17,0.81,7.9,2022-03-04 11:25:54.797,3
38,822,-0.99,2.89,-1.05,7.9,2022-03-04 11:25:54.896,3
39,842,-0.74,3.05,1.8,7.9,2022-03-04 11:25:54.996,3
40,864,-0.95,2.26,1.46,7.9,2022-03-04 11:25:55.094,3
41,884,-1.09,2.72,-0.84,7.9,2022-03-04 11:25:55.194,3
42,904,-1.06,2.83,-1.14,7.9,2022-03-04 11:25:55.293,3
43,924,-1.31,3.44,1.56,7.9,2022-03-04 11:25:55.392,3
44,944,-1.05,3.33,-2.1,7.9,2022-03-04 11:25:55.492,3
45,964,-1.65,3.61,2.65,7.9,2022-03-04 11:25:55.591,3
46,984,-1.51,4.21,2.08,7.9,2022-03-04 11:25:55.690,3
47,1010,-1.47,4.09,-2.25,14.4,2022-03-04 11:25:55.799,3
48,1030,-2.17,4.7,1.3,14.4,2022-03-04 11:25:55.899,3
49,1050,-1.96,3.54,-1.1,14.4,2022-03-04 11:25:55.999,3
50,1072,-1.41,3.03,-1.06,14.4,2022-03-04 11:25:56.098,3
51,1092,-1.79,2.9,-2.26,14.4,2022-03-04 11:25:56.196,3
52,1112,-2.51,4.26,-2.5,14.4,2022-03-04 11:25:56.297,3
53,1132,-2.66,3.41,-1.97,14.4,2022-03-04 11:25:56.395,3
54,1152,-1.97,2.93,-1.32,14.4,2022-03-04 11:25:56.494,3
55,1172,-1.0,1.98,0.61,14.4,2022-03-04 11:25:56.593,3
56,1192,-1.1,3.38,-1.74,14.4,2022-03-04 11:25:56.694,3
57,1216,-1.46,3.52,1.99,21.2,2022-03-04 11:25:56.792,3
58,1236,-1.33,2.62,-2.58,21.2,2022-03-04 11:25:56.892,3
59,1256,-1.23,2.0,-1.27,21.2,2022-03-04 11:25:56.990,3
60,1278,-1.93,1.81,-0.93,21.2,2022-03-04 11:25:57.090,3
61,1298,-1.48,1.0,-0.98,21.2,2022-03-04 11:25:57.189,3
62,1320,0.69,-1.02,0.63,21.2,2022-03-04 11:25:57.298,3
63,1340,-0.25,-1.2,1.09,21.2,2022-03-04 11:25:57.397,3
64,1360,0.77,-0.81,-1.24,21.2,2022-03-04 11:25:57.497,3
65,1380,-1.02,-0.95,-1.07,21.2,2022-03-04 11:25:57.598,3
66,1400,0.78,-0.47,0.83,21.2,2022-03-04 11:25:57.698,3
67,1424,0.93,-1.33,1.21,29.5,2022-03-04 11:25:57.794,3
68,1444,-1.07,-0.87,-1.78,29.5,2022-03-04 11:25:57.894,3
69,1464,-1.04,-0.77,-1.97,29.5,2022-03-04 11:25:57.993,3
70,1486,-0.96,1.54,-1.16,29.5,2022-03-04 11:25:58.092,3
71,1506,-0.66,1.67,1.43,29.5,2022-03-04 11:25:58.192,3
72,1526,-0.51,1.53,-0.91,29.5,2022-03-04 11:25:58.291,3
73,1546,-1.28,1.67,-0.68,29.5,2022-03-04 11:25:58.390,3
74,1566,-1.06,2.45,-1.63,29.5,2022-03-04 11:25:58.489,3
75,1586,-0.64,0.89,-1.06,29.5,2022-03-04 11:25:58.588,3
76,1608,-1.31,1.85,-1.1,29.5,2022-03-04 11:25:58.699,3
77,1630,0.75,1.3,-1.05,32.8,2022-03-04 11:25:58.787,3
78,1652,-0.55,1.73,-1.05,32.8,2022-03-04 11:25:58.896,3
79,1672,-0.9,1.56,1.25,32.8,2022-03-04 11:25:58.995,3
80,1694,-0.96,1.7,-1.02,32.8,2022-03-04 11:25:59.094,3
81,1714,-0.88,1.79,-1.04,32.8,2022-03-04 11:25:59.194,3
82,1734,-1.68,2.72,1.15,32.8,2022-03-04 11:25:59.293,3
83,1752,-1.84,2.87,-1.49,32.8,2022-03-04 11:25:59.385,3
84,1774,-2.1,2.14,1.69,32.8,2022-03-04 11:25:59.492,3
85,1794,1.2,1.34,-2.42,32.8,2022-03-04 11:25:59.591,3
86,1814,-1.53,1.4,-1.57,32.8,2022-03-04 11:25:59.691,3
87,1838,1.27,0.6,1.01,39.6,2022-03-04 11:25:59.790,3
88,1858,1.64,0.83,-1.86,39.6,2022-03-04 11:25:59.889,3
89,1880,-1.19,0.93,-1.59,39.6,2022-03-04 11:25:59.999,3
90,1900,1.32,1.06,1.4,39.6,2022-03-04 11:26:00.088,3
91,1922,-2.49,1.08,-1.28,39.6,2022-03-04 11:26:00.198,3
92,1942,2.31,1.23,1.64,39.6,2022-03-04 11:26:00.296,3
93,1962,-1.9,1.13,-1.03,39.6,2022-03-04 11:26:00.396,3
94,1982,1.72,1.25,-1.27,39.6,2022-03-04 11:26:00.495,3
95,2002,1.81,1.21,-1.76,39.6,2022-03-04 11:26:00.594,3
96,2022,1.29,0.64,-1.59,39.6,2022-03-04 11:26:00.694,3
97,2046,-2.11,1.02,0.94,45.4,2022-03-04 11:26:00.792,3
98,2066,1.06,1.07,-1.84,45.4,2022-03-04 11:26:00.892,3
99,2086,1.13,0.55,-2.19,45.4,2022-03-04 11:26:00.991,3
100,2108,-1.08,1.11,2.29,45.4,2022-03-04 11:26:01.090,3
101,2130,-1.49,1.09,-2.68,45.4,2022-03-04 11:26:01.199,3
102,2148,-1.86,0.78,-2.28,45.4,2022-03-04 11:26:01.289,3
103,2168,0.76,0.92,-1.91,45.4,2022-03-04 11:26:01.389,3
104,2190,-1.03,0.75,1.52,45.4,2022-03-04 11:26:01.499,3
105,2210,1.24,0.76,1.87,45.4,2022-03-04 11:26:01.599,3
106,2230,-0.9,0.37,-1.49,45.4,2022-03-04 11:26:01.697,3
107,2254,-1.3,0.47,-1.75,49.3,2022-03-04 11:26:01.795,3
108,2274,-1.02,0.59,-0.8,49.3,2022-03-04 11:26:01.898,3
109,2294,-0.83,0.63,-0.92,49.3,2022-03-04 11:26:01.993,3
110,2316,-0.9,-0.37,1.01,49.3,2022-03-04 11:26:02.093,3
111,2336,-1.22,-0.89,0.9,49.3,2022-03-04 11:26:02.192,3
112,2356,-0.55,-0.93,0.88,49.3,2022-03-04 11:26:02.293,3
113,2376,1.28,-1.44,-0.59,49.3,2022-03-04 11:26:02.394,3
114,2398,1.18,-1.27,-0.91,49.3,2022-03-04 11:26:02.499,3
115,2418,1.01,-1.42,1.57,49.3,2022-03-04 11:26:02.599,3
116,2438,0.97,-0.98,1.49,49.3,2022-03-04 11:26:02.698,3
117,2462,1.53,-1.65,1.73,51.5,2022-03-04 11:26:02.797,3
118,2482,1.3,-1.26,1.35,51.5,2022-03-04 11:26:02.897,3
119,2502,1.0,1.2,-1.16,51.5,2022-03-04 11:26:02.997,3
120,2524,-1.72,1.47,-1.31,51.5,2022-03-04 11:26:03.097,3
121,2544,-0.67,-1.23,-1.17,51.5,2022-03-04 11:26:03.194,3
122,2564,-0.87,1.41,-0.96,51.5,2022-03-04 11:26:03.293,3
123,2584,-0.81,-0.76,-1.14,51.5,2022-03-04 11:26:03.394,3
124,2604,-0.97,0.56,0.81,51.5,2022-03-04 11:26:03.492,3
125,2624,0.59,0.56,0.77,51.5,2022-03-04 11:26:03.591,3
126,2644,-0.85,0.44,-0.7,51.5,2022-03-04 11:26:03.690,3
127,2668,-0.9,0.61,-1.44,54.0,2022-03-04 11:26:03.790,3
128,2688,0.69,0.49,-1.02,54.0,2022-03-04 11:26:03.889,3
129,2710,-1.19,0.71,0.45,54.0,2022-03-04 11:26:03.999,3
130,2732,-0.44,0.75,0.54,54.0,2022-03-04 11:26:04.097,3
131,2750,-1.1,0.53,-0.73,54.0,2022-03-04 11:26:04.187,3
132,2772,-1.12,-0.91,-0.88,54.0,2022-03-04 11:26:04.297,3
133,2792,1.26,-0.97,1.57,54.0,2022-03-04 11:26:04.397,3
134,2812,1.5,-0.83,1.8,54.0,2022-03-04 11:26:04.496,3
135,2832,-1.14,-0.97,-1.87,54.0,2022-03-04 11:26:04.596,10
136,2852,-0.88,-1.09,-1.36,54.0,2022-03-04 11:26:04.693,10
137,2876,-0.66,-0.89,-1.22,56.9,2022-03-04 11:26:04.792,10
138,2896,0.78,-0.84,0.8,56.9,2022-03-04 11:26:04.892,10
139,2916,0.5,-0.76,-0.8,56.9,2022-03-04 11:26:04.992,10
140,2938,-0.64,-0.56,1.17,56.9,2022-03-04 11:26:05.090,10
141,2960,-1.15,-0.62,-1.06,56.9,2022-03-04 11:26:05.199,10
142,2980,-1.21,-0.9,-1.06,56.9,2022-03-04 11:26:05.299,10
143,3000,-1.26,-0.65,0.77,56.9,2022-03-04 11:26:05.398,10
144,3020,-0.95,-0.85,0.89,56.9,2022-03-04 11:26:05.497,10
145,3040,-0.89,-1.0,0.44,56.9,2022-03-04 11:26:05.598,10
146,3060,-0.47,-0.87,-0.64,56.9,2022-03-04 11:26:05.696,10
147,3084,-0.89,-0.93,-1.63,58.0,2022-03-04 11:26:05.795,10
148,3104,1.12,-1.0,-1.04,58.0,2022-03-04 11:26:05.895,10
149,3124,0.8,-0.66,-1.25,58.0,2022-03-04 11:26:05.996,10
150,3146,-0.63,-0.81,1.47,58.0,2022-03-04 11:26:06.095,10
151,3166,-0.59,-1.1,-0.68,58.0,2022-03-04 11:26:06.192,10
152,3186,-0.76,-1.22,-0.54,58.0,2022-03-04 11:26:06.292,10
153,3206,-0.87,-1.22,-0.73,58.0,2022-03-04 11:26:06.391,10
154,3226,-0.93,-1.15,-0.5,58.0,2022-03-04 11:26:06.490,10
155,3248,-0.96,-1.06,-0.74,58.0,2022-03-04 11:26:06.599,10
156,3272,-1.06,-1.18,1.12,58.3,2022-03-04 11:26:06.699,10
157,3292,0.72,-1.31,-1.15,58.3,2022-03-04 11:26:06.798,10
158,3310,-0.46,-1.33,0.67,58.3,2022-03-04 11:26:06.887,10
159,3332,-0.95,-1.24,-0.48,58.3,2022-03-04 11:26:06.997,10
160,3354,0.56,-1.09,0.38,58.3,2022-03-04 11:26:07.095,10
161,3374,-0.82,-1.09,-0.96,58.3,2022-03-04 11:26:07.197,10
162,3394,0.73,-1.14,-1.15,58.3,2022-03-04 11:26:07.295,10
163,3414,-0.97,-1.03,-0.77,58.3,2022-03-04 11:26:07.394,10
164,3434,-0.7,-1.02,1.07,58.3,2022-03-04 11:26:07.495,10
165,3454,-0.55,-1.11,-0.63,58.3,2022-03-04 11:26:07.594,10
166,3474,0.81,-1.09,-0.94,58.3,2022-03-04 11:26:07.693,10
167,3498,0.65,-1.19,-1.23,58.3,2022-03-04 11:26:07.790,10
168,3520,-0.68,-1.13,0.43,58.0,2022-03-04 11:26:07.899,10
169,3540,-1.08,-1.05,1.78,58.0,2022-03-04 11:26:07.999,10
170,3560,0.74,-1.06,-0.59,58.0,2022-03-04 11:26:08.089,10
171,3582,0.59,-1.11,-1.29,58.0,2022-03-04 11:26:08.198,10
172,3602,0.91,-1.22,-0.77,58.0,2022-03-04 11:26:08.297,10
173,3622,-1.11,-1.2,-0.77,58.0,2022-03-04 11:26:08.396,10
174,3642,0.6,-1.21,-0.81,58.0,2022-03-04 11:26:08.496,10
175,3662,-0.9,-1.09,-1.26,58.0,2022-03-04 11:26:08.595,10
176,3686,0.6,-1.41,1.05,58.0,2022-03-04 11:26:08.695,10
177,3706,0.56,-1.21,1.03,57.6,2022-03-04 11:26:08.793,10
178,3726,-0.41,-1.2,-0.76,57.6,2022-03-04 11:26:08.893,10
179,3746,1.05,-1.23,0.81,57.6,2022-03-04 11:26:08.994,10
180,3768,0.72,-1.38,-1.04,57.6,2022-03-04 11:26:09.091,10
181,3790,0.72,-1.48,2.46,57.6,2022-03-04 11:26:09.199,10
182,3810,0.36,-1.1,-1.3,57.6,2022-03-04 11:26:09.299,10
183,3830,0.81,-1.09,1.2,57.6,2022-03-04 11:26:09.399,10
184,3850,0.68,-1.1,-0.88,57.6,2022-03-04 11:26:09.497,10
185,3870,-0.67,-1.11,-1.29,57.6,2022-03-04 11:26:09.597,10
186,3890,0.64,-0.99,-0.76,57.6,2022-03-04 11:26:09.696,10
187,3914,0.4,-1.01,0.77,57.6,2022-03-04 11:26:09.796,10
188,3934,-0.7,-0.87,0.76,56.9,2022-03-04 11:26:09.895,10
189,3954,1.11,-1.01,0.37,56.9,2022-03-04 11:26:09.995,10
190,3976,1.46,-0.96,-0.76,56.9,2022-03-04 11:26:10.094,10
191,3996,0.7,-0.79,-1.48,56.9,2022-03-04 11:26:10.193,6
192,4016,1.3,-0.87,-0.74,56.9,2022-03-04 11:26:10.295,6
193,4036,-0.75,-1.02,-0.97,56.9,2022-03-04 11:26:10.391,6
194,4056,0.91,-1.06,-0.73,56.9,2022-03-04 11:26:10.492,6
195,4076,0.69,-1.34,-1.19,56.9,2022-03-04 11:26:10.593,6
196,4102,1.09,-0.98,0.7,56.9,2022-03-04 11:26:10.699,6
197,4122,0.88,-1.11,-0.8,56.5,2022-03-04 11:26:10.798,6
198,4142,0.61,-1.47,-0.76,56.5,2022-03-04 11:26:10.897,6
199,4162,0.8,-1.32,-0.86,56.5,2022-03-04 11:26:10.997,6
200,4184,0.67,-1.39,-1.07,56.5,2022-03-04 11:26:11.096,6
201,4204,1.11,-1.62,-1.62,56.5,2022-03-04 11:26:11.195,6
202,4224,1.44,-2.23,-0.58,56.5,2022-03-04 11:26:11.295,6
203,4244,1.52,-2.23,-0.79,56.5,2022-03-04 11:26:11.394,6
204,4264,1.73,-2.33,-0.87,56.5,2022-03-04 11:26:11.493,6
205,4284,1.63,-2.54,-1.83,56.5,2022-03-04 11:26:11.595,6
206,4306,1.27,-2.4,1.03,56.5,2022-03-04 11:26:11.699,6
207,4328,1.88,-2.5,1.19,53.3,2022-03-04 11:26:11.791,6
208,4348,1.04,-2.48,-1.19,53.3,2022-03-04 11:26:11.891,6
209,4370,1.84,-2.53,-0.8,53.3,2022-03-04 11:26:11.999,6
210,4392,1.26,-2.41,-0.81,53.3,2022-03-04 11:26:12.098,6
211,4412,1.56,-2.65,-1.2,53.3,2022-03-04 11:26:12.198,6
212,4432,1.4,-2.36,-0.95,53.3,2022-03-04 11:26:12.297,6
213,4452,1.5,-2.26,-0.59,53.3,2022-03-04 11:26:12.396,6
214,4472,1.8,-2.28,-0.65,53.3,2022-03-04 11:26:12.497,6
215,4492,1.99,-2.31,-0.6,53.3,2022-03-04 11:26:12.595,6
216,4512,2.05,-2.11,-1.05,53.3,2022-03-04 11:26:12.694,6
217,4536,1.89,-2.27,1.01,53.3,2022-03-04 11:26:12.793,6
218,4556,1.92,-1.96,1.07,47.2,2022-03-04 11:26:12.894,6
219,4576,2.3,-2.26,0.83,47.2,2022-03-04 11:26:12.992,6
220,4598,2.07,-2.16,0.79,47.2,2022-03-04 11:26:13.093,6
221,4618,2.02,-2.25,0.68,47.2,2022-03-04 11:26:13.191,6
222,4640,2.27,-2.27,-0.86,47.2,2022-03-04 11:26:13.299,6
223,4658,1.63,-2.2,-1.2,47.2,2022-03-04 11:26:13.390,6
224,4680,1.89,-2.26,-1.08,47.2,2022-03-04 11:26:13.498,6
225,4700,2.05,-2.19,0.56,47.2,2022-03-04 11:26:13.597,6
226,4720,1.43,-2.57,0.86,47.2,2022-03-04 11:26:13.697,6
227,4744,1.23,-2.57,0.86,41.0,2022-03-04 11:26:13.797,6
228,4764,1.26,-2.74,-0.99,41.0,2022-03-04 11:26:13.895,9
229,4784,-0.75,-2.64,0.61,41.0,2022-03-04 11:26:13.995,9
230,4806,-1.47,-2.76,-1.11,41.0,2022-03-04 11:26:14.094,9
231,4826,-1.17,-2.88,1.19,41.0,2022-03-04 11:26:14.194,9
232,4846,-1.02,-2.67,-0.81,41.0,2022-03-04 11:26:14.293,9
233,4866,-1.49,-2.69,-0.96,41.0,2022-03-04 11:26:14.393,9
234,4886,-1.55,-2.85,-1.22,41.0,2022-03-04 11:26:14.492,9
235,4908,-2.57,-2.7,0.96,41.0,2022-03-04 11:26:14.599,9
236,4928,-2.9,-2.7,-0.73,41.0,2022-03-04 11:26:14.699,9
237,4952,-3.51,-2.14,-0.72,41.0,2022-03-04 11:26:14.799,9
238,4972,-4.05,-0.87,-0.46,32.8,2022-03-04 11:26:14.898,9
239,4992,-4.67,-1.29,0.84,32.8,2022-03-04 11:26:14.998,9
240,5014,-4.82,-1.27,1.03,32.8,2022-03-04 11:26:15.096,9
241,5034,-5.01,-1.39,-0.89,32.8,2022-03-04 11:26:15.195,9
242,5054,-5.36,-1.76,-1.02,32.8,2022-03-04 11:26:15.298,9
243,5074,-5.87,-1.58,1.03,32.8,2022-03-04 11:26:15.394,9
244,5094,-5.36,-1.98,1.1,32.8,2022-03-04 11:26:15.493,9
245,5114,-6.17,-1.01,-0.72,32.8,2022-03-04 11:26:15.594,9
246,5134,-5.65,-0.77,1.55,32.8,2022-03-04 11:26:15.693,9
247,5158,-5.17,-1.31,0.87,32.8,2022-03-04 11:26:15.792,9
248,5178,-5.33,-1.23,0.82,32.0,2022-03-04 11:26:15.891,9
249,5200,-5.57,-1.42,-0.45,32.0,2022-03-04 11:26:15.999,9
250,5222,-5.48,-1.66,1.0,32.0,2022-03-04 11:26:16.098,9
251,5242,-5.74,-1.74,0.44,32.0,2022-03-04 11:26:16.198,9
252,5262,-6.22,-1.88,0.6,32.0,2022-03-04 11:26:16.297,9
253,5282,-6.39,-1.95,0.75,32.0,2022-03-04 11:26:16.396,9
254,5302,-7.45,-2.35,-1.22,32.0,2022-03-04 11:26:16.495,9
255,5322,-6.69,-2.33,0.82,32.0,2022-03-04 11:26:16.595,9
256,5342,-6.52,-2.55,-0.86,32.0,2022-03-04 11:26:16.697,9
257,5366,-6.49,-2.48,0.93,32.0,2022-03-04 11:26:16.794,9
258,5386,-6.08,-2.61,0.86,28.8,2022-03-04 11:26:16.893,9
259,5406,-5.67,-2.97,1.14,28.8,2022-03-04 11:26:16.993,9
260,5428,-5.65,-2.66,-0.85,28.8,2022-03-04 11:26:17.092,9
261,5448,-5.96,-2.57,1.22,28.8,2022-03-04 11:26:17.190,9
262,5468,-5.25,-2.78,-0.98,28.8,2022-03-04 11:26:17.290,9
263,5490,-5.25,-2.78,0.91,28.8,2022-03-04 11:26:17.398,9
264,5510,-5.64,-2.77,-0.82,28.8,2022-03-04 11:26:17.499,9
265,5530,-5.96,-2.96,0.75,28.8,2022-03-04 11:26:17.597,9
266,5548,-5.26,-2.77,0.79,28.8,2022-03-04 11:26:17.689,9
267,5574,-5.18,-3.3,1.1,28.8,2022-03-04 11:26:17.796,9
268,5594,-4.86,-3.01,-0.95,20.2,2022-03-04 11:26:17.896,9
269,5614,-5.7,-3.14,-1.26,20.2,2022-03-04 11:26:17.995,9
270,5636,-5.8,-3.02,1.43,20.2,2022-03-04 11:26:18.099,9
271,5656,-5.38,-3.03,1.75,20.2,2022-03-04 11:26:18.193,9
272,5676,-5.25,-2.82,-1.85,20.2,2022-03-04 11:26:18.292,9
273,5696,-5.33,-3.03,-1.67,20.2,2022-03-04 11:26:18.391,9
274,5716,-6.15,-2.81,-1.0,20.2,2022-03-04 11:26:18.491,9
275,5736,-5.4,-2.3,1.35,20.2,2022-03-04 11:26:18.592,9
276,5756,-6.1,-2.14,1.5,20.2,2022-03-04 11:26:18.691,9
277,5782,-7.02,-2.11,2.08,20.2,2022-03-04 11:26:18.798,9
278,5802,-5.78,-1.7,1.79,19.4,2022-03-04 11:26:18.898,9
279,5822,-5.36,-1.57,1.3,19.4,2022-03-04 11:26:18.997,9
280,5844,-4.41,-1.29,1.25,19.4,2022-03-04 11:26:19.097,9
281,5864,-3.87,-1.36,-0.96,19.4,2022-03-04 11:26:19.199,9
282,5884,-2.7,-0.78,-1.66,19.4,2022-03-04 11:26:19.295,9
283,5904,-2.66,0.61,1.28,19.4,2022-03-04 11:26:19.394,9
284,5924,-2.21,0.9,1.1,19.4,2022-03-04 11:26:19.494,9
285,5944,-1.61,1.09,-1.53,19.4,2022-03-04 11:26:19.593,3
286,5964,-1.16,1.53,-1.56,19.4,2022-03-04 11:26:19.693,3
287,5988,-1.05,-0.47,-0.76,21.6,2022-03-04 11:26:19.791,3
288,6008,-1.21,0.65,1.11,21.6,2022-03-04 11:26:19.891,3
289,6028,0.67,0.79,0.91,21.6,2022-03-04 11:26:19.990,3
290,6052,1.02,0.92,1.21,21.6,2022-03-04 11:26:20.099,3
291,6072,0.44,1.36,1.0,21.6,2022-03-04 11:26:20.198,3
292,6092,0.71,0.47,-1.13,21.6,2022-03-04 11:26:20.297,3
293,6112,0.72,1.08,-1.42,21.6,2022-03-04 11:26:20.397,3
294,6132,1.02,1.36,-1.65,21.6,2022-03-04 11:26:20.496,3
295,6152,1.14,1.13,-1.67,21.6,2022-03-04 11:26:20.597,3
296,6172,1.09,1.31,-1.7,21.6,2022-03-04 11:26:20.695,3
297,6196,1.01,1.52,1.94,23.4,2022-03-04 11:26:20.794,3
298,6216,1.38,1.61,-2.93,23.4,2022-03-04 11:26:20.894,3
299,6236,1.29,1.75,1.7,23.4,2022-03-04 11:26:20.992,3
300,6258,1.86,1.44,-2.24,23.4,2022-03-04 11:26:21.091,3
301,6278,1.4,1.78,-1.75,23.4,2022-03-04 11:26:21.192,3
302,6298,1.48,1.68,1.95,23.4,2022-03-04 11:26:21.290,3
303,6320,1.36,1.88,-2.01,23.4,2022-03-04 11:26:21.399,3
304,6340,2.42,1.77,1.01,23.4,2022-03-04 11:26:21.498,3
305,6360,2.01,1.33,-1.24,23.4,2022-03-04 11:26:21.598,3
306,6384,2.39,1.73,1.08,31.3,2022-03-04 11:26:21.697,3
307,6404,1.58,1.14,-1.67,31.3,2022-03-04 11:26:21.796,3
308,6424,2.6,1.43,-0.85,31.3,2022-03-04 11:26:21.896,3
309,6444,2.32,1.25,1.64,31.3,2022-03-04 11:26:21.995,3
310,6466,2.52,1.07,-1.31,31.3,2022-03-04 11:26:22.094,3
311,6486,2.64,0.93,1.38,31.3,2022-03-04 11:26:22.193,3
312,6506,3.16,0.84,1.67,31.3,2022-03-04 11:26:22.293,3
313,6526,2.35,1.08,-1.26,31.3,2022-03-04 11:26:22.392,3
314,6546,2.64,0.6,-1.29,31.3,2022-03-04 11:26:22.491,3
315,6566,2.28,-1.18,-1.52,31.3,2022-03-04 11:26:22.590,3
316,6588,1.53,-2.07,-1.34,40.7,2022-03-04 11:26:22.699,3
317,6610,1.13,-2.06,0.83,40.7,2022-03-04 11:26:22.789,3
318,6632,1.08,-1.84,1.07,40.7,2022-03-04 11:26:22.898,3
319,6652,0.95,-1.64,0.75,40.7,2022-03-04 11:26:22.997,3
320,6674,0.89,-1.64,0.54,40.7,2022-03-04 11:26:23.097,3
321,6694,1.22,-1.69,0.48,40.7,2022-03-04 11:26:23.196,3
322,6714,1.14,-1.73,-1.17,40.7,2022-03-04 11:26:23.295,3
323,6734,1.17,-0.8,1.22,40.7,2022-03-04 11:26:23.394,3
324,6754,0.61,-0.66,1.09,40.7,2022-03-04 11:26:23.494,3
325,6774,0.89,-1.44,-1.1,40.7,2022-03-04 11:26:23.594,3
326,6794,1.33,-1.29,-0.73,40.7,2022-03-04 11:26:23.694,3
327,6818,0.91,-1.33,1.35,43.6,2022-03-04 11:26:23.792,3
328,6838,1.46,-0.88,-1.12,43.6,2022-03-04 11:26:23.891,3
329,6858,0.87,-0.85,1.49,43.6,2022-03-04 11:26:23.990,3
330,6880,1.01,-0.87,-1.58,43.6,2022-03-04 11:26:24.090,3
331,6902,1.15,-0.4,2.37,43.6,2022-03-04 11:26:24.199,3
332,6922,0.88,-0.71,1.54,43.6,2022-03-04 11:26:24.299,3
333,6942,0.53,-0.96,1.55,43.6,2022-03-04 11:26:24.399,3
334,6962,-0.97,-0.63,2.45,43.6,2022-03-04 11:26:24.496,3
335,6982,-1.12,0.5,2.23,43.6,2022-03-04 11:26:24.597,3
336,7002,0.45,-0.65,-2.52,43.6,2022-03-04 11:26:24.696,3
337,7026,0.88,-0.84,-2.24,47.5,2022-03-04 11:26:24.794,3
338,7046,1.51,-1.03,1.47,47.5,2022-03-04 11:26:24.894,3
339,7066,1.29,-1.03,-1.87,47.5,2022-03-04 11:26:24.993,3
340,7088,-0.98,-0.84,-1.33,47.5,2022-03-04 11:26:25.092,3
341,7108,0.77,-0.75,-1.73,47.5,2022-03-04 11:26:25.191,3
342,7128,1.03,-1.15,1.75,47.5,2022-03-04 11:26:25.292,3
343,7148,0.99,-1.04,-1.97,47.5,2022-03-04 11:26:25.390,3
344,7168,0.9,-1.01,-1.59,47.5,2022-03-04 11:26:25.489,3
345,7190,0.42,-0.82,1.26,47.5,2022-03-04 11:26:25.599,10
346,7210,0.9,-0.98,-1.4,47.5,2022-03-04 11:26:25.699,10
347,7234,0.88,-1.0,0.93,51.1,2022-03-04 11:26:25.798,10
348,7254,0.75,-0.98,-1.51,51.1,2022-03-04 11:26:25.898,10
349,7274,0.92,-1.32,1.34,51.1,2022-03-04 11:26:25.995,10
350,7296,1.12,-1.12,-0.76,51.1,2022-03-04 11:26:26.095,10
351,7316,0.67,-1.32,-1.59,51.1,2022-03-04 11:26:26.194,10
352,7336,0.47,-0.94,-1.13,51.1,2022-03-04 11:26:26.293,10
353,7356,1.18,-1.2,-1.11,51.1,2022-03-04 11:26:26.392,10
354,7376,1.57,-1.22,0.96,51.1,2022-03-04 11:26:26.491,10
355,7396,0.94,-1.48,-0.96,51.1,2022-03-04 11:26:26.591,10
356,7420,1.1,-1.24,1.11,53.6,2022-03-04 11:26:26.690,10
357,7440,0.66,-1.52,-0.58,53.6,2022-03-04 11:26:26.791,10
358,7462,0.55,-1.2,-1.17,53.6,2022-03-04 11:26:26.899,10
359,7482,0.31,-1.36,-1.17,53.6,2022-03-04 11:26:26.999,10
360,7504,1.19,-1.12,0.5,53.6,2022-03-04 11:26:27.097,10
361,7524,0.69,-1.17,0.88,53.6,2022-03-04 11:26:27.197,10
362,7544,0.89,-1.27,1.27,53.6,2022-03-04 11:26:27.299,10
363,7564,0.79,-1.13,-1.08,53.6,2022-03-04 11:26:27.397,10
364,7584,0.73,-1.11,-1.34,53.6,2022-03-04 11:26:27.494,10
365,7604,0.95,-1.37,1.19,53.6,2022-03-04 11:26:27.594,10
366,7624,-0.42,-1.07,-0.95,53.6,2022-03-04 11:26:27.693,10
367,7648,0.72,-1.32,0.94,55.1,2022-03-04 11:26:27.791,10
368,7668,0.99,-1.3,0.73,55.1,2022-03-04 11:26:27.891,10
369,7688,0.99,-1.61,0.95,55.1,2022-03-04 11:26:27.992,10
370,7710,0.83,-1.2,0.72,55.1,2022-03-04 11:26:28.090,10
371,7730,0.77,-1.58,-0.96,55.1,2022-03-04 11:26:28.189,10
372,7752,0.91,-1.52,-1.13,55.1,2022-03-04 11:26:28.299,10
373,7772,0.96,-1.26,-0.58,55.1,2022-03-04 11:26:28.398,10
374,7792,1.05,-1.47,1.42,55.1,2022-03-04 11:26:28.498,10
375,7812,0.78,-1.37,0.67,55.1,2022-03-04 11:26:28.597,10
376,7832,0.9,-1.24,0.83,55.1,2022-03-04 11:26:28.697,10
377,7856,0.59,-1.08,-0.64,55.4,2022-03-04 11:26:28.797,10
378,7876,0.58,-1.14,-1.16,55.4,2022-03-04 11:26:28.894,10
379,7894,0.51,-0.89,0.89,55.4,2022-03-04 11:26:28.983,10
380,7918,0.48,-0.88,0.75,55.4,2022-03-04 11:26:29.092,10
381,7938,0.29,-0.96,-0.82,55.4,2022-03-04 11:26:29.193,10
382,7958,-0.69,-1.04,0.53,55.4,2022-03-04 11:26:29.292,10
383,7978,0.48,-0.96,0.69,55.4,2022-03-04 11:26:29.390,10
384,7998,0.41,-1.09,0.84,55.4,2022-03-04 11:26:29.490,10
385,8020,0.58,-0.81,-0.69,55.4,2022-03-04 11:26:29.598,10
386,8038,0.87,-1.05,-1.54,55.4,2022-03-04 11:26:29.689,10
387,8064,0.86,-1.02,-0.76,56.9,2022-03-04 11:26:29.797,10
388,8084,0.77,-0.99,0.58,56.9,2022-03-04 11:26:29.897,10
389,8104,0.77,-0.88,1.08,56.9,2022-03-04 11:26:29.997,10
390,8126,0.82,-0.93,-0.73,56.9,2022-03-04 11:26:30.097,10
391,8146,0.77,-1.66,-1.03,56.9,2022-03-04 11:26:30.195,10
392,8166,-0.92,-1.55,-1.29,56.9,2022-03-04 11:26:30.295,10
393,8186,0.6,-1.32,0.61,56.9,2022-03-04 11:26:30.392,10
394,8206,0.61,-1.29,0.79,56.9,2022-03-04 11:26:30.492,10
395,8226,0.51,-1.29,0.68,56.9,2022-03-04 11:26:30.591,10
396,8246,0.89,-1.38,-0.59,56.9,2022-03-04 11:26:30.691,10
397,8270,0.65,-1.4,-0.59,56.9,2022-03-04 11:26:30.789,10
398,8292,0.92,-1.35,-0.84,56.9,2022-03-04 11:26:30.899,10
399,8312,0.94,-1.33,1.19,56.9,2022-03-04 11:26:30.998,10
400,8334,0.71,-1.96,-0.95,56.9,2022-03-04 11:26:31.099,10
401,8354,0.44,-1.4,0.8,56.9,2022-03-04 11:26:31.197,10
402,8374,-1.06,-1.49,-1.14,56.9,2022-03-04 11:26:31.296,10
403,8394,-0.7,-1.3,1.06,56.9,2022-03-04 11:26:31.397,10
404,8414,-0.7,-1.2,-0.82,56.9,2022-03-04 11:26:31.496,10
405,8434,-0.96,-1.27,-0.71,56.9,2022-03-04 11:26:31.594,6
406,8454,0.71,-1.36,-0.85,56.9,2022-03-04 11:26:31.696,6
407,8478,0.63,-1.3,0.69,56.9,2022-03-04 11:26:31.795,6
408,8498,0.53,-1.56,0.54,55.8,2022-03-04 11:26:31.892,6
409,8518,0.66,-1.69,0.44,55.8,2022-03-04 11:26:31.991,6
410,8540,0.89,-1.68,-0.29,55.8,2022-03-04 11:26:32.090,6
411,8562,1.27,-2.15,-0.82,55.8,2022-03-04 11:26:32.199,6
412,8582,1.06,-2.77,-0.54,55.8,2022-03-04 11:26:32.298,6
413,8602,1.09,-2.88,-0.72,55.8,2022-03-04 11:26:32.398,6
414,8622,0.95,-2.92,-0.41,55.8,2022-03-04 11:26:32.499,6
415,8642,0.86,-2.93,-0.76,55.8,2022-03-04 11:26:32.597,6
416,8662,1.23,-2.99,-0.71,55.8,2022-03-04 11:26:32.698,6
417,8686,0.85,-3.14,-0.51,55.8,2022-03-04 11:26:32.795,6
418,8706,1.25,-3.15,-1.06,52.2,2022-03-04 11:26:32.894,6
419,8726,0.8,-2.93,-0.93,52.2,2022-03-04 11:26:32.994,6
420,8748,1.13,-3.19,0.69,52.2,2022-03-04 11:26:33.094,6
421,8768,1.32,-3.18,-1.35,52.2,2022-03-04 11:26:33.194,6
422,8788,1.03,-3.02,-1.21,52.2,2022-03-04 11:26:33.291,6
423,8808,1.48,-4.5,-1.48,52.2,2022-03-04 11:26:33.390,6
424,8830,1.34,-5.06,-0.97,52.2,2022-03-04 11:26:33.499,6
425,8850,2.08,-4.88,-0.82,52.2,2022-03-04 11:26:33.599,6
426,8870,1.29,-5.02,-0.66,52.2,2022-03-04 11:26:33.699,6
427,8894,1.13,-4.7,-0.53,43.2,2022-03-04 11:26:33.797,6
428,8914,1.52,-4.91,0.61,43.2,2022-03-04 11:26:33.897,6
429,8934,0.93,-4.9,-1.01,43.2,2022-03-04 11:26:33.998,6
430,8956,1.32,-4.86,-0.89,43.2,2022-03-04 11:26:34.096,6
431,8976,1.33,-4.98,-0.67,43.2,2022-03-04 11:26:34.195,6
432,8996,1.33,-5.31,-0.36,43.2,2022-03-04 11:26:34.296,6
433,9016,1.74,-5.46,-0.63,43.2,2022-03-04 11:26:34.393,6
434,9036,1.53,-5.31,-0.75,43.2,2022-03-04 11:26:34.493,6
435,9056,1.25,-5.45,-1.05,43.2,2022-03-04 11:26:34.593,6
436,9076,1.07,-5.61,-0.63,43.2,2022-03-04 11:26:34.693,6
437,9100,1.13,-5.34,0.9,43.2,2022-03-04 11:26:34.790,6
438,9122,1.02,-5.26,-2.18,28.4,2022-03-04 11:26:34.899,6
439,9142,1.38,-5.23,-2.13,28.4,2022-03-04 11:26:34.999,6
440,9164,1.1,-4.72,0.66,28.4,2022-03-04 11:26:35.098,6
441,9184,0.96,-3.96,0.63,28.4,2022-03-04 11:26:35.198,6
442,9204,0.64,-3.97,-1.04,28.4,2022-03-04 11:26:35.296,6
443,9224,0.53,-3.86,-0.77,28.4,2022-03-04 11:26:35.396,6
444,9244,0.58,-3.76,-0.37,28.4,2022-03-04 11:26:35.495,6
445,9264,0.62,-3.58,-0.39,28.4,2022-03-04 11:26:35.595,6
446,9284,0.7,-2.74,-0.48,28.4,2022-03-04 11:26:35.693,6
447,9308,0.33,-2.28,-0.44,28.4,2022-03-04 11:26:35.793,6
448,9328,0.36,-1.76,-0.36,13.3,2022-03-04 11:26:35.892,6
449,9348,0.29,-1.47,-0.17,13.3,2022-03-04 11:26:35.992,6
450,9370,0.17,-1.15,-0.23,13.3,2022-03-04 11:26:36.092,6
451,9390,0.14,-0.6,-0.26,13.3,2022-03-04 11:26:36.191,6
452,9412,-0.12,-0.27,-0.29,13.3,2022-03-04 11:26:36.299,6
453,9432,-0.18,0.09,-0.32,13.3,2022-03-04 11:26:36.398,6
454,9452,-0.2,0.16,-0.3,13.3,2022-03-04 11:26:36.497,6
455,9472,-0.14,0.13,-0.24,13.3,2022-03-04 11:26:36.596,6
456,9492,-0.11,0.14,-0.25,13.3,2022-03-04 11:26:36.696,6
457,9516,-0.28,0.36,-0.3,8.3,2022-03-04 11:26:36.796,6
458,9536,-0.33,0.6,-0.24,8.3,2022-03-04 11:26:36.894,6
459,9556,-0.33,0.99,-0.22,8.3,2022-03-04 11:26:36.995,6
460,9578,-0.25,1.05,-0.26,8.3,2022-03-04 11:26:37.094,6
461,9598,-0.28,1.16,-0.27,8.3,2022-03-04 11:26:37.192,6
462,9618,-0.38,0.97,-0.22,8.3,2022-03-04 11:26:37.291,6
463,9638,-0.3,0.83,-0.19,8.3,2022-03-04 11:26:37.393,6
464,9658,-0.29,0.82,-0.22,8.3,2022-03-04 11:26:37.491,6
465,9680,-0.29,0.83,-0.28,8.3,2022-03-04 11:26:37.599,6
466,9700,-0.22,0.75,-0.29,8.3,2022-03-04 11:26:37.698,6
467,9724,-0.3,0.7,-0.22,8.3,2022-03-04 11:26:37.798,6
468,9744,-0.31,0.81,-0.24,6.5,2022-03-04 11:26:37.897,6
469,9764,-0.33,0.84,-0.23,6.5,2022-03-04 11:26:37.996,6
470,9786,-0.29,0.87,-0.29,6.5,2022-03-04 11:26:38.096,6
471,9806,-0.32,0.75,-0.23,6.5,2022-03-04 11:26:38.195,6
472,9826,-0.35,0.79,-0.28,6.5,2022-03-04 11:26:38.294,6
473,9846,-0.3,0.79,-0.26,6.5,2022-03-04 11:26:38.394,6
474,9866,-0.34,0.8,-0.26,6.5,2022-03-04 11:26:38.493,6
475,9886,-0.29,0.72,-0.32,6.5,2022-03-04 11:26:38.592,6
476,9906,-0.23,0.72,-0.3,6.5,2022-03-04 11:26:38.693,6
477,9930,-0.33,0.76,-0.25,6.5,2022-03-04 11:26:38.791,6
478,9952,-0.31,0.65,-0.26,0.4,2022-03-04 11:26:38.899,6
479,9972,-0.21,0.56,-0.28,0.4,2022-03-04 11:26:38.999,0
480,9994,-0.17,0.53,-0.22,0.4,2022-03-04 11:26:39.098,0
481,10014,-0.21,0.45,-0.53,0.4,2022-03-04 11:26:39.197,0
482,10034,1.23,0.81,3.02,0.4,2022-03-04 11:26:39.297,0
483,10054,-0.2,0.54,-0.74,0.4,2022-03-04 11:26:39.396,0
484,10074,-0.22,0.39,-0.26,0.4,2022-03-04 11:26:39.495,0
485,10094,-0.17,0.41,-0.3,0.4,2022-03-04 11:26:39.594,0
486,10114,-0.19,0.43,-0.32,0.4,2022-03-04 11:26:39.694,0
487,10122,-0.32,0.45,-0.32,6.8,2022-03-04 11:26:39.730,0
