,LineNumber,Accel_X,Accel_Y,Accel_Z,Velocity,RealTime,Label
0,14,-0.22,0.58,-0.15,0.0,2022-03-04 11:16:45.097,0
1,34,-0.26,0.6,-0.21,0.0,2022-03-04 11:16:45.196,0
2,54,-0.31,0.56,-0.25,0.0,2022-03-04 11:16:45.295,0
3,74,-0.36,0.62,-0.21,0.0,2022-03-04 11:16:45.396,0
4,94,-0.26,0.52,-0.27,0.0,2022-03-04 11:16:45.494,0
5,114,-0.3,0.51,-0.22,0.0,2022-03-04 11:16:45.593,0
6,134,-0.18,0.46,-0.28,0.0,2022-03-04 11:16:45.692,0
7,158,-0.5,0.5,0.73,0.0,2022-03-04 11:16:45.792,0
8,178,-0.28,0.5,-0.76,0.0,2022-03-04 11:16:45.891,0
9,198,-0.4,0.45,-0.27,0.0,2022-03-04 11:16:45.991,0
10,220,-0.31,0.5,-0.27,0.0,2022-03-04 11:16:46.089,0
11,242,-0.17,0.48,-0.22,0.0,2022-03-04 11:16:46.199,0
12,262,-0.34,0.48,-0.3,0.0,2022-03-04 11:16:46.298,0
13,282,-0.32,0.46,-0.29,0.0,2022-03-04 11:16:46.397,0
14,302,-0.25,0.46,-0.19,0.0,2022-03-04 11:16:46.497,0
15,322,-0.27,0.45,-0.41,0.0,2022-03-04 11:16:46.596,0
16,342,-0.26,0.45,0.31,0.0,2022-03-04 11:16:46.696,0
17,366,-0.3,0.46,-0.29,0.0,2022-03-04 11:16:46.794,0
18,386,-0.24,0.39,-0.36,0.0,2022-03-04 11:16:46.894,0
19,406,-0.28,0.48,-0.18,0.0,2022-03-04 11:16:46.993,0
20,428,-0.32,0.33,-0.31,0.0,2022-03-04 11:16:47.092,0
21,448,-0.22,0.4,-0.2,0.0,2022-03-04 11:16:47.191,0
22,468,-0.3,0.47,-0.21,0.0,2022-03-04 11:16:47.292,0
23,488,-0.29,0.37,-0.27,0.0,2022-03-04 11:16:47.390,0
24,510,-0.21,0.63,-0.2,0.0,2022-03-04 11:16:47.499,0
25,530,0.91,0.67,0.39,0.0,2022-03-04 11:16:47.598,0
26,550,-0.51,0.39,0.26,0.0,2022-03-04 11:16:47.698,0
27,574,-0.31,0.41,-0.36,0.0,2022-03-04 11:16:47.797,0
28,594,0.39,0.45,-0.89,0.0,2022-03-04 11:16:47.896,0
29,614,-0.3,0.46,-0.67,0.0,2022-03-04 11:16:47.995,0
30,636,-0.24,0.36,-0.34,0.0,2022-03-04 11:16:48.094,0
31,656,-0.24,0.41,-0.26,0.0,2022-03-04 11:16:48.194,0
32,676,-0.22,0.37,-0.25,0.0,2022-03-04 11:16:48.293,0
33,696,-0.16,0.29,-0.25,0.0,2022-03-04 11:16:48.393,0
34,716,-0.39,0.38,-0.28,0.0,2022-03-04 11:16:48.492,3
35,736,-0.23,0.34,-0.55,0.0,2022-03-04 11:16:48.591,3
36,756,-0.31,0.99,-0.42,0.0,2022-03-04 11:16:48.691,3
37,780,-0.62,1.95,0.82,0.0,2022-03-04 11:16:48.789,3
38,800,-0.8,2.84,0.79,0.0,2022-03-04 11:16:48.889,3
39,822,-0.86,2.89,-1.09,0.0,2022-03-04 11:16:48.998,3
40,844,-0.88,3.0,-1.57,0.0,2022-03-04 11:16:49.097,3
41,864,-1.13,3.02,-1.64,0.0,2022-03-04 11:16:49.198,3
42,884,-1.32,3.2,-1.52,0.0,2022-03-04 11:16:49.296,3
43,904,-0.84,4.0,1.82,0.0,2022-03-04 11:16:49.395,3
44,922,-1.15,4.04,1.92,0.0,2022-03-04 11:16:49.487,3
45,944,-1.74,4.33,2.3,0.0,2022-03-04 11:16:49.594,3
46,964,-1.52,4.5,-2.2,0.0,2022-03-04 11:16:49.693,3
47,988,-1.45,4.05,-2.11,7.9,2022-03-04 11:16:49.793,3
48,1008,-1.82,3.59,2.46,7.9,2022-03-04 11:16:49.893,3
49,1028,-0.79,2.33,-1.73,7.9,2022-03-04 11:16:49.991,3
50,1050,-1.32,2.98,-0.94,7.9,2022-03-04 11:16:50.090,3
51,1072,-1.09,3.53,-1.9,7.9,2022-03-04 11:16:50.199,3
52,1090,-1.43,2.92,-2.16,7.9,2022-03-04 11:16:50.289,3
53,1110,-1.2,3.31,-2.39,7.9,2022-03-04 11:16:50.389,3
54,1132,-1.33,3.59,-3.01,7.9,2022-03-04 11:16:50.497,3
55,1152,-1.28,3.63,-2.82,7.9,2022-03-04 11:16:50.596,3
56,1172,-1.1,3.96,-1.68,7.9,2022-03-04 11:16:50.696,3
57,1196,-2.14,4.09,1.47,13.0,2022-03-04 11:16:50.794,3
58,1216,-1.29,3.57,-1.66,13.0,2022-03-04 11:16:50.893,3
59,1236,-2.01,3.67,-1.96,13.0,2022-03-04 11:16:50.993,3
60,1258,-1.74,3.38,1.66,13.0,2022-03-04 11:16:51.092,3
61,1278,-3.83,3.72,2.82,13.0,2022-03-04 11:16:51.192,3
62,1298,-2.69,4.1,-2.62,13.0,2022-03-04 11:16:51.291,3
63,1318,-1.39,3.84,-1.22,13.0,2022-03-04 11:16:51.390,3
64,1338,-0.82,1.68,-1.07,13.0,2022-03-04 11:16:51.490,3
65,1358,-0.87,1.74,-1.05,13.0,2022-03-04 11:16:51.588,3
66,1378,-1.11,3.02,-1.72,13.0,2022-03-04 11:16:51.689,3
67,1404,-1.57,2.49,-2.85,24.8,2022-03-04 11:16:51.798,3
68,1424,-0.96,2.77,1.82,24.8,2022-03-04 11:16:51.899,3
69,1444,-0.77,1.43,-1.18,24.8,2022-03-04 11:16:51.996,3
70,1466,-1.09,0.61,-1.53,24.8,2022-03-04 11:16:52.095,3
71,1486,-0.5,-0.57,-1.57,24.8,2022-03-04 11:16:52.194,3
72,1506,1.06,-0.54,1.02,24.8,2022-03-04 11:16:52.294,3
73,1526,0.74,-0.5,1.02,24.8,2022-03-04 11:16:52.393,3
74,1546,1.08,0.62,1.79,24.8,2022-03-04 11:16:52.492,3
75,1566,0.84,-0.53,-1.21,24.8,2022-03-04 11:16:52.591,3
76,1586,0.97,-0.61,-1.77,24.8,2022-03-04 11:16:52.691,3
77,1610,-0.73,1.34,-1.77,28.4,2022-03-04 11:16:52.790,3
78,1632,-1.46,1.86,2.03,28.4,2022-03-04 11:16:52.899,3
79,1650,-0.67,2.09,-1.32,28.4,2022-03-04 11:16:52.989,3
80,1674,0.8,1.96,-1.17,28.4,2022-03-04 11:16:53.098,3
81,1694,-0.58,1.44,-1.64,28.4,2022-03-04 11:16:53.198,3
82,1714,-0.75,1.93,-1.17,28.4,2022-03-04 11:16:53.298,3
83,1734,0.59,1.32,0.5,28.4,2022-03-04 11:16:53.395,3
84,1754,-0.72,1.46,-0.99,28.4,2022-03-04 11:16:53.494,3
85,1774,-0.68,1.12,-1.53,28.4,2022-03-04 11:16:53.594,3
86,1794,-0.63,2.07,0.92,28.4,2022-03-04 11:16:53.693,3
87,1818,-0.97,1.76,1.35,32.4,2022-03-04 11:16:53.792,3
88,1838,-1.04,1.74,1.0,32.4,2022-03-04 11:16:53.892,3
89,1858,-0.88,1.91,-1.29,32.4,2022-03-04 11:16:53.991,3
90,1880,-0.99,2.1,-1.47,32.4,2022-03-04 11:16:54.090,3
91,1900,-0.95,3.05,-1.7,32.4,2022-03-04 11:16:54.189,3
92,1920,-0.91,2.84,-2.1,32.4,2022-03-04 11:16:54.288,3
93,1942,-1.34,1.83,-2.12,32.4,2022-03-04 11:16:54.399,3
94,1962,-0.98,1.67,1.24,32.4,2022-03-04 11:16:54.497,3
95,1982,1.4,1.1,1.1,32.4,2022-03-04 11:16:54.597,3
96,2002,-0.74,1.01,-1.49,32.4,2022-03-04 11:16:54.696,3
97,2026,-1.21,1.07,1.38,38.9,2022-03-04 11:16:54.796,3
98,2046,1.15,0.82,1.7,38.9,2022-03-04 11:16:54.894,3
99,2066,1.01,0.84,-1.69,38.9,2022-03-04 11:16:54.993,3
100,2088,1.35,0.89,1.5,38.9,2022-03-04 11:16:55.093,3
101,2108,-1.19,1.21,-1.17,38.9,2022-03-04 11:16:55.192,3
102,2128,1.73,1.28,-1.29,38.9,2022-03-04 11:16:55.291,3
103,2148,1.32,1.19,0.95,38.9,2022-03-04 11:16:55.391,3
104,2168,1.14,1.32,1.38,38.9,2022-03-04 11:16:55.490,3
105,2190,-1.7,1.28,-1.97,38.9,2022-03-04 11:16:55.599,3
106,2210,-1.3,1.33,1.6,38.9,2022-03-04 11:16:55.699,3
107,2234,1.54,-0.65,-2.67,43.9,2022-03-04 11:16:55.798,3
108,2254,-1.18,0.52,-1.71,43.9,2022-03-04 11:16:55.897,3
109,2274,1.25,1.11,-1.54,43.9,2022-03-04 11:16:55.997,3
110,2296,-0.75,-0.87,-1.58,43.9,2022-03-04 11:16:56.096,3
111,2316,-0.82,-0.34,-2.52,43.9,2022-03-04 11:16:56.195,3
112,2336,-0.77,-0.82,1.11,43.9,2022-03-04 11:16:56.295,3
113,2356,-2.01,-1.6,1.22,43.9,2022-03-04 11:16:56.395,3
114,2376,1.36,-0.98,1.47,43.9,2022-03-04 11:16:56.492,3
115,2396,0.92,-0.96,-0.78,43.9,2022-03-04 11:16:56.592,3
116,2420,0.54,-0.96,-1.1,46.1,2022-03-04 11:16:56.692,3
117,2440,0.87,-1.4,-0.8,46.1,2022-03-04 11:16:56.791,3
118,2462,0.82,-0.88,-0.58,46.1,2022-03-04 11:16:56.899,3
119,2482,-1.38,-0.84,0.55,46.1,2022-03-04 11:16:56.998,3
120,2504,-0.72,2.17,1.49,46.1,2022-03-04 11:16:57.099,3
121,2524,-1.08,1.75,1.49,46.1,2022-03-04 11:16:57.197,3
122,2542,0.71,-0.88,0.77,46.1,2022-03-04 11:16:57.286,3
123,2564,-1.43,1.41,-0.86,46.1,2022-03-04 11:16:57.397,3
124,2584,-0.93,1.28,1.5,46.1,2022-03-04 11:16:57.495,3
125,2604,-1.18,0.67,-1.89,46.1,2022-03-04 11:16:57.595,3
126,2624,-0.57,0.87,1.13,46.1,2022-03-04 11:16:57.695,3
127,2648,-0.96,0.73,1.97,48.2,2022-03-04 11:16:57.794,3
128,2668,-1.11,1.23,1.69,48.2,2022-03-04 11:16:57.895,3
129,2688,-0.67,1.2,-1.94,48.2,2022-03-04 11:16:57.991,3
130,2710,-0.74,0.78,1.53,48.2,2022-03-04 11:16:58.090,3
131,2732,-0.58,-0.31,-2.41,48.2,2022-03-04 11:16:58.199,3
132,2752,0.28,-0.52,-1.23,48.2,2022-03-04 11:16:58.299,3
133,2772,-0.68,-0.49,0.68,48.2,2022-03-04 11:16:58.398,3
134,2792,0.68,-0.54,-1.41,48.2,2022-03-04 11:16:58.498,3
135,2812,-0.48,-0.44,-1.1,48.2,2022-03-04 11:16:58.598,3
136,2832,0.48,-0.43,-1.15,48.2,2022-03-04 11:16:58.697,3
137,2856,-0.86,-0.45,-0.96,51.1,2022-03-04 11:16:58.795,3
138,2876,-0.62,-0.46,-1.32,51.1,2022-03-04 11:16:58.895,3
139,2896,-0.79,-0.39,1.3,51.1,2022-03-04 11:16:58.995,3
140,2918,-0.34,0.25,1.55,51.1,2022-03-04 11:16:59.093,3
141,2938,-0.52,-0.44,-1.64,51.1,2022-03-04 11:16:59.193,3
142,2958,-0.55,-0.55,-1.06,51.1,2022-03-04 11:16:59.294,3
143,2978,-0.4,-0.5,-1.45,51.1,2022-03-04 11:16:59.391,3
144,2998,0.97,-0.55,1.05,51.1,2022-03-04 11:16:59.490,3
145,3020,0.72,-1.33,-2.06,51.1,2022-03-04 11:16:59.599,3
146,3040,0.89,-1.23,1.22,51.1,2022-03-04 11:16:59.699,3
147,3064,1.17,-1.27,-2.31,52.9,2022-03-04 11:16:59.799,3
148,3084,0.84,-0.97,0.93,52.9,2022-03-04 11:16:59.897,3
149,3104,1.11,-1.19,0.7,52.9,2022-03-04 11:16:59.997,3
150,3126,1.25,-1.06,0.76,52.9,2022-03-04 11:17:00.096,3
151,3146,0.94,-1.06,-0.54,52.9,2022-03-04 11:17:00.197,3
152,3166,0.83,-0.98,-1.2,52.9,2022-03-04 11:17:00.294,3
153,3186,-1.89,0.69,-2.71,52.9,2022-03-04 11:17:00.398,3
154,3206,2.02,-0.93,1.56,52.9,2022-03-04 11:17:00.496,3
155,3226,-4.19,1.23,-2.28,52.9,2022-03-04 11:17:00.593,3
156,3246,-1.25,-0.51,1.66,52.9,2022-03-04 11:17:00.692,3
157,3270,-1.06,-0.47,-0.77,53.3,2022-03-04 11:17:00.790,10
158,3292,1.07,-0.54,0.62,53.3,2022-03-04 11:17:00.899,10
159,3310,-0.58,-0.37,-1.12,53.3,2022-03-04 11:17:00.990,10
160,3334,0.52,-0.46,-0.77,53.3,2022-03-04 11:17:01.098,10
161,3354,0.68,-0.65,1.07,53.3,2022-03-04 11:17:01.198,10
162,3374,0.72,0.27,1.23,53.3,2022-03-04 11:17:01.297,10
163,3394,0.66,-0.57,-1.07,53.3,2022-03-04 11:17:01.396,10
164,3414,1.11,0.35,-0.99,53.3,2022-03-04 11:17:01.495,10
165,3434,0.81,-0.66,-0.87,53.3,2022-03-04 11:17:01.595,10
166,3458,0.6,-0.66,-0.54,54.7,2022-03-04 11:17:01.694,10
167,3478,1.11,-0.69,-0.99,54.7,2022-03-04 11:17:01.793,10
168,3498,1.21,-0.8,-1.21,54.7,2022-03-04 11:17:01.894,10
169,3518,-0.77,-0.8,0.92,54.7,2022-03-04 11:17:01.993,10
170,3540,0.49,-0.58,-1.46,54.7,2022-03-04 11:17:02.091,10
171,3560,-0.84,-0.64,0.84,54.7,2022-03-04 11:17:02.191,10
172,3580,-0.9,-0.63,-0.85,54.7,2022-03-04 11:17:02.289,10
173,3600,-0.86,-0.76,-0.94,54.7,2022-03-04 11:17:02.388,10
174,3622,-0.67,-0.93,-0.94,54.7,2022-03-04 11:17:02.498,10
175,3642,-1.03,-0.72,-0.77,54.7,2022-03-04 11:17:02.597,10
176,3662,-0.68,-1.08,1.05,54.7,2022-03-04 11:17:02.698,10
177,3686,-0.46,-0.86,1.19,55.4,2022-03-04 11:17:02.795,10
178,3706,-0.9,-0.72,-0.65,55.4,2022-03-04 11:17:02.896,10
179,3726,-0.71,-0.91,-0.75,55.4,2022-03-04 11:17:02.995,10
180,3748,0.74,-0.9,-1.19,55.4,2022-03-04 11:17:03.093,10
181,3768,0.92,-1.01,-0.78,55.4,2022-03-04 11:17:03.195,10
182,3788,-0.65,-0.98,-1.28,55.4,2022-03-04 11:17:03.295,10
183,3808,0.9,-1.04,0.95,55.4,2022-03-04 11:17:03.396,10
184,3828,0.44,-1.14,-0.48,55.4,2022-03-04 11:17:03.493,10
185,3850,0.96,-0.9,-1.09,55.4,2022-03-04 11:17:03.599,10
186,3868,0.69,-0.93,-0.92,55.4,2022-03-04 11:17:03.692,10
187,3894,0.94,-1.09,-0.92,55.4,2022-03-04 11:17:03.798,10
188,3914,0.32,-0.92,-0.84,55.1,2022-03-04 11:17:03.897,10
189,3934,-1.0,-1.03,0.83,55.1,2022-03-04 11:17:03.996,10
190,3956,0.92,-0.98,1.03,55.1,2022-03-04 11:17:04.096,10
191,3976,0.82,-1.1,0.79,55.1,2022-03-04 11:17:04.195,10
192,3996,0.86,-0.78,-1.43,55.1,2022-03-04 11:17:04.294,10
193,4016,0.51,-0.84,0.83,55.1,2022-03-04 11:17:04.396,10
194,4036,-0.33,-1.24,1.51,55.1,2022-03-04 11:17:04.493,10
195,4056,0.26,-1.04,-1.63,55.1,2022-03-04 11:17:04.594,10
196,4076,0.81,-0.88,0.69,55.1,2022-03-04 11:17:04.692,10
197,4100,-0.52,-0.79,-0.48,55.1,2022-03-04 11:17:04.790,10
198,4122,0.52,-1.24,-0.81,54.4,2022-03-04 11:17:04.899,10
199,4142,0.85,-1.17,-0.9,54.4,2022-03-04 11:17:04.999,10
200,4164,0.46,-1.26,0.87,54.4,2022-03-04 11:17:05.098,10
201,4184,0.56,-1.3,0.49,54.4,2022-03-04 11:17:05.198,10
202,4204,0.76,-1.24,-0.81,54.4,2022-03-04 11:17:05.297,10
203,4224,0.85,-1.11,0.53,54.4,2022-03-04 11:17:05.397,10
204,4244,1.24,-1.04,0.43,54.4,2022-03-04 11:17:05.495,10
205,4264,0.64,-0.91,-0.77,54.4,2022-03-04 11:17:05.595,10
206,4284,1.21,-0.86,-0.78,54.4,2022-03-04 11:17:05.694,10
207,4308,1.03,-0.9,-0.56,54.4,2022-03-04 11:17:05.793,6
208,4328,1.05,-0.82,-0.77,52.6,2022-03-04 11:17:05.893,6
209,4348,0.74,-1.11,-0.6,52.6,2022-03-04 11:17:05.993,6
210,4370,0.81,-1.05,-0.81,52.6,2022-03-04 11:17:06.091,6
211,4390,1.04,-1.59,1.17,52.6,2022-03-04 11:17:06.193,6
212,4412,0.87,-1.56,-0.71,52.6,2022-03-04 11:17:06.299,6
213,4432,1.34,-1.92,-1.41,52.6,2022-03-04 11:17:06.399,6
214,4452,0.71,-2.22,-0.84,52.6,2022-03-04 11:17:06.498,6
215,4472,0.84,-2.07,-0.74,52.6,2022-03-04 11:17:06.599,6
216,4496,0.93,-2.04,1.11,52.6,2022-03-04 11:17:06.698,6
217,4516,0.52,-1.7,-0.93,49.7,2022-03-04 11:17:06.796,6
218,4536,0.85,-1.41,-0.91,49.7,2022-03-04 11:17:06.895,6
219,4556,0.96,-1.51,-0.82,49.7,2022-03-04 11:17:06.994,6
220,4578,0.91,-1.35,-0.91,49.7,2022-03-04 11:17:07.094,6
221,4598,1.0,-1.4,-0.54,49.7,2022-03-04 11:17:07.193,6
222,4618,0.85,-1.03,0.61,49.7,2022-03-04 11:17:07.294,6
223,4638,0.99,-1.06,0.41,49.7,2022-03-04 11:17:07.393,6
224,4658,1.0,-1.25,-0.67,49.7,2022-03-04 11:17:07.491,6
225,4678,0.91,-1.4,0.72,49.7,2022-03-04 11:17:07.591,6
226,4698,0.81,-1.91,-0.95,49.7,2022-03-04 11:17:07.692,6
227,4724,1.2,-2.13,-1.4,49.7,2022-03-04 11:17:07.798,6
228,4744,0.97,-2.15,-0.52,46.8,2022-03-04 11:17:07.899,6
229,4764,1.32,-2.4,-0.71,46.8,2022-03-04 11:17:07.997,6
230,4786,1.15,-1.98,-0.58,46.8,2022-03-04 11:17:08.096,6
231,4806,2.01,-1.92,-0.91,46.8,2022-03-04 11:17:08.195,6
232,4826,2.09,-1.94,0.65,46.8,2022-03-04 11:17:08.295,6
233,4846,2.49,-1.8,-0.53,46.8,2022-03-04 11:17:08.394,6
234,4866,2.09,-1.85,0.74,46.8,2022-03-04 11:17:08.494,6
235,4886,1.83,-1.91,-0.59,46.8,2022-03-04 11:17:08.593,6
236,4906,1.83,-1.81,1.13,46.8,2022-03-04 11:17:08.693,6
237,4930,1.77,-1.71,0.99,40.7,2022-03-04 11:17:08.791,6
238,4950,1.73,-1.82,-1.2,40.7,2022-03-04 11:17:08.890,6
239,4972,1.94,-1.83,-0.69,40.7,2022-03-04 11:17:08.999,6
240,4994,1.91,-1.77,-1.01,40.7,2022-03-04 11:17:09.099,6
241,5014,1.86,-1.84,-0.74,40.7,2022-03-04 11:17:09.198,6
242,5034,1.7,-1.83,1.04,40.7,2022-03-04 11:17:09.299,6
243,5054,1.36,-1.83,1.17,40.7,2022-03-04 11:17:09.396,6
244,5074,1.35,-2.01,-0.8,40.7,2022-03-04 11:17:09.496,6
245,5094,1.31,-2.08,-0.65,40.7,2022-03-04 11:17:09.595,6
246,5114,0.99,-2.03,-1.15,40.7,2022-03-04 11:17:09.694,6
247,5138,1.08,-2.13,-0.95,40.7,2022-03-04 11:17:09.793,9
248,5158,-0.76,-2.0,0.56,35.3,2022-03-04 11:17:09.894,9
249,5178,-1.11,-1.99,-0.62,35.3,2022-03-04 11:17:09.992,9
250,5200,-1.32,-2.08,-0.83,35.3,2022-03-04 11:17:10.091,9
251,5220,-1.76,-2.16,0.49,35.3,2022-03-04 11:17:10.190,9
252,5240,-2.1,-2.01,0.68,35.3,2022-03-04 11:17:10.291,9
253,5260,-2.5,-1.76,-0.78,35.3,2022-03-04 11:17:10.389,9
254,5282,-2.59,-1.61,-0.74,35.3,2022-03-04 11:17:10.498,9
255,5302,-3.35,-1.49,1.01,35.3,2022-03-04 11:17:10.598,9
256,5322,-3.97,-1.91,1.1,35.3,2022-03-04 11:17:10.697,9
257,5346,-3.96,-1.94,0.83,35.3,2022-03-04 11:17:10.796,9
258,5366,-4.67,-2.27,-0.68,29.2,2022-03-04 11:17:10.895,9
259,5386,-4.35,-2.47,0.74,29.2,2022-03-04 11:17:10.995,9
260,5408,-4.66,-2.12,0.78,29.2,2022-03-04 11:17:11.094,9
261,5428,-4.33,-2.17,-0.75,29.2,2022-03-04 11:17:11.193,9
262,5448,-4.36,-2.0,0.93,29.2,2022-03-04 11:17:11.292,9
263,5468,-4.76,-1.7,0.39,29.2,2022-03-04 11:17:11.392,9
264,5488,-4.66,-1.37,0.56,29.2,2022-03-04 11:17:11.491,9
265,5508,-4.45,-1.45,1.06,29.2,2022-03-04 11:17:11.591,9
266,5534,-4.67,-1.5,-0.61,29.2,2022-03-04 11:17:11.699,9
267,5554,-4.1,-1.36,-0.39,26.3,2022-03-04 11:17:11.798,9
268,5574,-3.91,-1.45,0.56,26.3,2022-03-04 11:17:11.898,9
269,5594,-3.7,-1.49,0.71,26.3,2022-03-04 11:17:11.997,9
270,5616,-4.06,-0.93,0.63,26.3,2022-03-04 11:17:12.096,9
271,5636,-4.46,-0.23,-0.63,26.3,2022-03-04 11:17:12.196,9
272,5656,-4.34,-0.84,0.4,26.3,2022-03-04 11:17:12.295,9
273,5676,-4.7,-1.22,0.88,26.3,2022-03-04 11:17:12.394,9
274,5696,-4.01,-0.66,0.75,26.3,2022-03-04 11:17:12.493,9
275,5716,-4.78,-1.16,0.87,26.3,2022-03-04 11:17:12.593,9
276,5736,-4.67,-1.38,0.84,26.3,2022-03-04 11:17:12.692,9
277,5760,-4.82,-1.33,0.67,26.3,2022-03-04 11:17:12.791,9
278,5780,-4.57,-1.37,-0.81,23.4,2022-03-04 11:17:12.891,9
279,5800,-4.38,-1.38,0.99,23.4,2022-03-04 11:17:12.990,9
280,5822,-4.71,-1.58,-1.22,23.4,2022-03-04 11:17:13.089,9
281,5844,-4.22,-1.69,-0.96,23.4,2022-03-04 11:17:13.198,9
282,5864,-4.34,-1.82,0.84,23.4,2022-03-04 11:17:13.297,9
283,5884,-4.14,-1.81,0.83,23.4,2022-03-04 11:17:13.397,9
284,5904,-4.62,-2.36,1.47,23.4,2022-03-04 11:17:13.497,9
285,5924,-4.73,-2.35,-0.83,23.4,2022-03-04 11:17:13.595,9
286,5944,-4.86,-2.7,0.51,23.4,2022-03-04 11:17:13.694,9
287,5968,-5.72,-3.0,1.45,23.4,2022-03-04 11:17:13.793,9
288,5988,-5.96,-2.83,-0.98,19.4,2022-03-04 11:17:13.893,9
289,6008,-5.9,-2.47,-0.81,19.4,2022-03-04 11:17:13.992,9
290,6030,-5.67,-2.58,-0.68,19.4,2022-03-04 11:17:14.093,9
291,6050,-6.53,-2.75,1.06,19.4,2022-03-04 11:17:14.191,9
292,6070,-6.02,-2.9,1.07,19.4,2022-03-04 11:17:14.290,9
293,6090,-6.91,-2.82,-0.75,19.4,2022-03-04 11:17:14.391,9
294,6110,-6.08,-2.85,1.22,19.4,2022-03-04 11:17:14.489,9
295,6132,-5.8,-2.7,-1.73,19.4,2022-03-04 11:17:14.598,9
296,6150,-6.31,-1.98,1.49,19.4,2022-03-04 11:17:14.690,9
297,6176,-6.79,-2.21,1.25,20.9,2022-03-04 11:17:14.796,9
298,6196,-6.16,-2.07,1.57,20.9,2022-03-04 11:17:14.896,9
299,6216,-6.76,-1.69,2.86,20.9,2022-03-04 11:17:14.995,9
300,6238,-5.55,-1.77,-1.56,20.9,2022-03-04 11:17:15.094,9
301,6258,-5.38,-1.42,1.96,20.9,2022-03-04 11:17:15.193,9
302,6278,-4.29,-1.3,1.09,20.9,2022-03-04 11:17:15.293,9
303,6298,-4.56,-0.9,1.22,20.9,2022-03-04 11:17:15.392,9
304,6318,-3.19,-1.19,1.49,20.9,2022-03-04 11:17:15.491,9
305,6338,-2.17,-0.74,0.52,20.9,2022-03-04 11:17:15.591,3
306,6358,-1.15,-0.38,-0.91,20.9,2022-03-04 11:17:15.693,3
307,6382,-1.66,0.51,-0.95,22.7,2022-03-04 11:17:15.789,3
308,6402,-1.23,0.66,-0.9,22.7,2022-03-04 11:17:15.889,3
309,6422,-1.0,0.76,1.32,22.7,2022-03-04 11:17:15.988,3
310,6446,-0.88,0.52,1.05,22.7,2022-03-04 11:17:16.097,3
311,6466,-0.95,0.86,1.49,22.7,2022-03-04 11:17:16.199,3
312,6486,-1.74,0.76,1.87,22.7,2022-03-04 11:17:16.299,3
313,6506,-0.78,0.66,1.41,22.7,2022-03-04 11:17:16.394,3
314,6526,-0.92,1.37,1.62,22.7,2022-03-04 11:17:16.494,3
315,6546,1.14,1.57,-1.76,22.7,2022-03-04 11:17:16.594,3
316,6570,1.58,1.02,1.67,25.2,2022-03-04 11:17:16.693,3
317,6590,1.46,1.1,2.04,25.2,2022-03-04 11:17:16.791,3
318,6610,1.39,1.33,-1.84,25.2,2022-03-04 11:17:16.891,3
319,6630,1.31,0.94,1.74,25.2,2022-03-04 11:17:16.990,3
320,6652,2.03,1.14,2.31,25.2,2022-03-04 11:17:17.089,3
321,6674,1.55,1.14,-1.69,25.2,2022-03-04 11:17:17.199,3
322,6694,1.16,1.07,1.01,25.2,2022-03-04 11:17:17.298,3
323,6712,1.17,1.49,-1.36,25.2,2022-03-04 11:17:17.387,3
324,6734,2.0,0.97,1.22,25.2,2022-03-04 11:17:17.498,3
325,6754,1.68,1.2,-0.71,25.2,2022-03-04 11:17:17.598,3
326,6774,2.77,1.28,-1.89,25.2,2022-03-04 11:17:17.697,3
327,6798,1.94,0.72,-0.81,33.5,2022-03-04 11:17:17.794,3
328,6818,1.87,0.67,-0.9,33.5,2022-03-04 11:17:17.893,3
329,6838,2.41,0.77,0.73,33.5,2022-03-04 11:17:17.993,3
330,6860,1.82,0.78,0.47,33.5,2022-03-04 11:17:18.092,3
331,6880,2.48,0.46,-0.99,33.5,2022-03-04 11:17:18.191,3
332,6900,1.67,0.29,-1.76,33.5,2022-03-04 11:17:18.290,3
333,6922,1.7,0.34,1.08,33.5,2022-03-04 11:17:18.399,3
334,6940,2.03,0.45,-0.79,33.5,2022-03-04 11:17:18.489,3
335,6962,2.23,0.45,1.72,33.5,2022-03-04 11:17:18.599,3
336,6982,2.26,-0.5,-1.57,33.5,2022-03-04 11:17:18.699,3
337,7006,2.5,-0.58,-2.09,39.6,2022-03-04 11:17:18.797,3
338,7026,1.62,-1.5,-1.06,39.6,2022-03-04 11:17:18.898,3
339,7046,1.46,-1.84,0.56,39.6,2022-03-04 11:17:18.997,3
340,7068,1.7,-1.67,0.64,39.6,2022-03-04 11:17:19.097,3
341,7088,1.87,-2.06,0.36,39.6,2022-03-04 11:17:19.197,3
342,7108,1.42,-2.19,-0.72,39.6,2022-03-04 11:17:19.293,3
343,7128,1.0,-1.81,-0.64,39.6,2022-03-04 11:17:19.392,3
344,7148,1.15,-1.87,0.93,39.6,2022-03-04 11:17:19.493,3
345,7168,1.31,-2.2,0.85,39.6,2022-03-04 11:17:19.591,3
346,7188,1.29,-1.87,0.63,39.6,2022-03-04 11:17:19.691,3
347,7214,1.61,-1.7,-0.72,40.7,2022-03-04 11:17:19.799,3
348,7234,1.03,-0.77,-0.57,40.7,2022-03-04 11:17:19.899,3
349,7254,0.66,0.45,-1.0,40.7,2022-03-04 11:17:19.998,3
350,7276,0.64,-0.8,-1.11,40.7,2022-03-04 11:17:20.097,3
351,7296,0.73,-1.25,0.91,40.7,2022-03-04 11:17:20.197,3
352,7316,0.85,-1.13,-0.94,40.7,2022-03-04 11:17:20.296,3
353,7336,-0.51,-1.15,-0.41,40.7,2022-03-04 11:17:20.396,3
354,7356,-0.65,-0.81,0.93,40.7,2022-03-04 11:17:20.496,3
355,7376,-0.75,-0.5,1.29,40.7,2022-03-04 11:17:20.593,3
356,7396,-1.78,-0.66,2.31,40.7,2022-03-04 11:17:20.693,3
357,7420,-0.98,-0.43,1.24,43.6,2022-03-04 11:17:20.792,3
358,7440,-1.13,-0.49,-2.5,43.6,2022-03-04 11:17:20.891,3
359,7460,0.67,-0.88,2.43,43.6,2022-03-04 11:17:20.990,3
360,7484,-1.0,-0.95,1.45,43.6,2022-03-04 11:17:21.099,3
361,7504,0.82,-1.71,-0.72,43.6,2022-03-04 11:17:21.199,3
362,7524,-0.74,-1.48,0.66,43.6,2022-03-04 11:17:21.299,3
363,7544,0.92,-1.67,0.53,43.6,2022-03-04 11:17:21.398,3
364,7564,0.75,-1.47,1.09,43.6,2022-03-04 11:17:21.498,3
365,7584,1.2,-1.45,-1.11,43.6,2022-03-04 11:17:21.599,3
366,7604,0.58,-1.46,-0.93,46.4,2022-03-04 11:17:21.689,3
367,7628,0.52,-1.46,0.53,46.4,2022-03-04 11:17:21.795,3
368,7648,0.72,-1.54,-0.45,46.4,2022-03-04 11:17:21.895,3
369,7668,0.66,-1.39,0.82,46.4,2022-03-04 11:17:21.995,3
370,7690,0.61,-1.54,0.62,46.4,2022-03-04 11:17:22.093,3
371,7710,0.57,-1.38,0.83,46.4,2022-03-04 11:17:22.193,3
372,7730,0.84,-1.54,-0.83,46.4,2022-03-04 11:17:22.292,3
373,7750,0.75,-1.23,1.6,46.4,2022-03-04 11:17:22.390,3
374,7772,0.54,-0.99,-1.3,46.4,2022-03-04 11:17:22.499,3
375,7792,0.7,-1.36,-0.87,46.4,2022-03-04 11:17:22.599,3
376,7812,0.9,-0.97,1.13,46.4,2022-03-04 11:17:22.699,3
377,7836,1.06,-1.48,0.68,47.9,2022-03-04 11:17:22.797,3
378,7856,0.7,-1.23,0.85,47.9,2022-03-04 11:17:22.896,3
379,7876,1.41,-1.39,1.0,47.9,2022-03-04 11:17:22.996,3
380,7898,0.71,-1.12,-1.14,47.9,2022-03-04 11:17:23.097,3
381,7918,0.68,-0.84,-1.27,47.9,2022-03-04 11:17:23.195,3
382,7938,0.84,-1.03,-0.6,47.9,2022-03-04 11:17:23.296,3
383,7958,0.7,-0.88,-1.07,47.9,2022-03-04 11:17:23.395,3
384,7978,1.18,-0.61,-0.84,47.9,2022-03-04 11:17:23.494,3
385,7998,0.66,-0.77,0.95,47.9,2022-03-04 11:17:23.591,3
386,8018,0.74,-0.87,0.93,47.9,2022-03-04 11:17:23.691,3
387,8044,0.53,-0.61,2.57,49.3,2022-03-04 11:17:23.799,3
388,8064,0.75,-0.73,-1.32,49.3,2022-03-04 11:17:23.899,3
389,8084,0.74,-1.14,1.24,49.3,2022-03-04 11:17:23.998,3
390,8106,0.55,-1.19,-1.2,49.3,2022-03-04 11:17:24.099,10
391,8126,1.27,-1.28,0.8,49.3,2022-03-04 11:17:24.197,10
392,8146,0.85,-1.07,-0.8,49.3,2022-03-04 11:17:24.296,10
393,8166,0.71,-1.17,0.72,49.3,2022-03-04 11:17:24.396,10
394,8186,1.15,-1.14,1.97,49.3,2022-03-04 11:17:24.495,10
395,8206,0.88,-1.15,-1.03,49.3,2022-03-04 11:17:24.595,10
396,8226,0.93,-1.11,-0.74,49.3,2022-03-04 11:17:24.698,10
397,8250,1.26,-1.08,-1.41,51.1,2022-03-04 11:17:24.793,10
398,8270,0.7,-1.15,0.63,51.1,2022-03-04 11:17:24.893,10
399,8290,0.71,-0.93,1.48,51.1,2022-03-04 11:17:24.991,10
400,8312,0.6,-1.1,0.9,51.1,2022-03-04 11:17:25.090,10
401,8334,0.75,-1.11,-0.78,51.1,2022-03-04 11:17:25.199,10
402,8354,0.89,-1.0,-1.06,51.1,2022-03-04 11:17:25.298,10
403,8374,0.3,-1.36,-1.43,51.1,2022-03-04 11:17:25.398,10
404,8394,0.95,-1.04,-1.36,51.1,2022-03-04 11:17:25.497,10
405,8414,0.74,-1.19,-0.89,51.1,2022-03-04 11:17:25.596,10
406,8434,1.04,-1.0,-1.16,51.1,2022-03-04 11:17:25.697,10
407,8458,0.41,-0.58,1.15,51.5,2022-03-04 11:17:25.795,10
408,8478,0.49,-0.86,-0.83,51.5,2022-03-04 11:17:25.894,10
409,8498,-0.52,-0.62,-1.65,51.5,2022-03-04 11:17:25.993,10
410,8520,0.5,-0.78,1.0,51.5,2022-03-04 11:17:26.093,10
411,8540,0.49,-1.26,-0.58,51.5,2022-03-04 11:17:26.193,10
412,8560,1.3,-1.24,-0.87,51.5,2022-03-04 11:17:26.294,10
413,8580,0.76,-1.27,0.79,51.5,2022-03-04 11:17:26.390,10
414,8602,-0.8,-1.44,1.01,51.5,2022-03-04 11:17:26.499,10
415,8620,0.85,-1.29,1.14,51.5,2022-03-04 11:17:26.589,10
416,8642,0.6,-1.29,-1.1,51.5,2022-03-04 11:17:26.698,10
417,8666,0.67,-1.27,-1.25,52.2,2022-03-04 11:17:26.797,10
418,8686,0.34,-1.31,-1.13,52.2,2022-03-04 11:17:26.897,10
419,8706,0.76,-1.28,-1.15,52.2,2022-03-04 11:17:26.996,10
420,8728,0.9,-1.15,-1.2,52.2,2022-03-04 11:17:27.095,10
421,8748,1.24,-1.17,0.71,52.2,2022-03-04 11:17:27.195,10
422,8768,0.62,-1.24,-0.93,52.2,2022-03-04 11:17:27.294,10
423,8788,0.5,-1.32,-0.77,52.2,2022-03-04 11:17:27.395,10
424,8808,0.55,-1.24,0.7,52.2,2022-03-04 11:17:27.492,10
425,8828,0.57,-2.09,-0.58,52.2,2022-03-04 11:17:27.593,10
426,8848,0.56,-1.85,0.68,52.2,2022-03-04 11:17:27.691,10
427,8872,0.73,-0.7,-1.15,52.2,2022-03-04 11:17:27.791,10
428,8894,0.86,0.92,-1.0,51.5,2022-03-04 11:17:27.899,10
429,8914,0.65,-0.86,-1.05,51.5,2022-03-04 11:17:27.998,10
430,8936,0.74,-0.77,1.33,51.5,2022-03-04 11:17:28.098,10
431,8956,-0.29,-0.95,-0.74,51.5,2022-03-04 11:17:28.197,10
432,8976,-0.52,-0.79,-1.31,51.5,2022-03-04 11:17:28.296,10
433,8996,0.43,-0.85,-0.94,51.5,2022-03-04 11:17:28.396,10
434,9016,0.44,-0.93,1.02,51.5,2022-03-04 11:17:28.495,10
435,9036,0.6,-0.79,0.86,51.5,2022-03-04 11:17:28.594,10
436,9056,0.68,-0.92,1.24,51.5,2022-03-04 11:17:28.693,10
437,9080,0.43,-0.72,0.73,52.2,2022-03-04 11:17:28.793,10
438,9100,-0.81,-0.82,-0.99,52.2,2022-03-04 11:17:28.892,10
439,9120,-0.54,-0.37,-1.06,52.2,2022-03-04 11:17:28.991,10
440,9142,0.3,-0.41,-0.76,52.2,2022-03-04 11:17:29.091,10
441,9162,-0.43,-0.49,-0.8,52.2,2022-03-04 11:17:29.190,10
442,9184,-0.62,-0.49,-0.78,52.2,2022-03-04 11:17:29.299,10
443,9204,-0.87,-0.71,0.73,52.2,2022-03-04 11:17:29.399,10
444,9224,0.79,-0.42,-1.25,52.2,2022-03-04 11:17:29.497,10
445,9244,-0.77,-0.77,1.11,52.2,2022-03-04 11:17:29.596,6
446,9264,0.38,-0.99,-1.08,52.2,2022-03-04 11:17:29.697,6
447,9288,0.7,-1.58,-1.02,52.9,2022-03-04 11:17:29.795,6
448,9308,0.6,-1.22,-1.08,52.9,2022-03-04 11:17:29.895,6
449,9328,1.09,-0.94,0.79,52.9,2022-03-04 11:17:29.993,6
450,9350,0.56,-1.64,-0.7,52.9,2022-03-04 11:17:30.093,6
451,9370,1.19,-2.37,-0.98,52.9,2022-03-04 11:17:30.195,6
452,9390,1.0,-2.67,-0.67,52.9,2022-03-04 11:17:30.293,6
453,9410,1.0,-2.87,-0.44,52.9,2022-03-04 11:17:30.391,6
454,9432,1.27,-3.38,-0.93,52.9,2022-03-04 11:17:30.499,6
455,9452,1.43,-3.8,0.83,52.9,2022-03-04 11:17:30.599,6
456,9472,1.8,-3.74,-0.86,52.9,2022-03-04 11:17:30.698,6
457,9496,1.15,-3.63,-0.65,52.9,2022-03-04 11:17:30.798,6
458,9516,1.5,-4.06,-0.66,49.0,2022-03-04 11:17:30.897,6
459,9536,1.86,-4.0,0.92,49.0,2022-03-04 11:17:30.996,6
460,9558,1.57,-4.06,-0.59,49.0,2022-03-04 11:17:31.095,6
461,9578,1.89,-4.2,-1.73,49.0,2022-03-04 11:17:31.196,6
462,9598,1.64,-4.67,1.31,49.0,2022-03-04 11:17:31.295,6
463,9618,1.58,-4.7,1.28,49.0,2022-03-04 11:17:31.393,6
464,9638,1.24,-5.08,1.29,49.0,2022-03-04 11:17:31.492,6
465,9658,2.05,-5.02,-1.51,49.0,2022-03-04 11:17:31.595,6
466,9682,1.19,-5.34,-1.21,49.0,2022-03-04 11:17:31.691,6
467,9702,1.1,-5.02,1.1,37.1,2022-03-04 11:17:31.791,6
468,9724,1.11,-5.1,-1.34,37.1,2022-03-04 11:17:31.899,6
469,9744,1.14,-4.9,-1.0,37.1,2022-03-04 11:17:31.999,6
470,9766,1.03,-5.29,-0.8,37.1,2022-03-04 11:17:32.098,6
471,9786,1.33,-4.85,0.52,37.1,2022-03-04 11:17:32.198,6
472,9806,1.02,-4.81,-1.04,37.1,2022-03-04 11:17:32.297,6
473,9826,0.99,-4.85,-0.56,37.1,2022-03-04 11:17:32.396,6
474,9846,1.06,-4.71,-0.52,37.1,2022-03-04 11:17:32.495,6
475,9866,0.8,-4.98,0.93,37.1,2022-03-04 11:17:32.594,6
476,9886,1.08,-4.78,-0.87,37.1,2022-03-04 11:17:32.695,6
477,9910,0.93,-4.57,-0.86,37.1,2022-03-04 11:17:32.794,6
478,9930,0.62,-4.17,-0.8,22.0,2022-03-04 11:17:32.892,6
479,9950,0.57,-3.65,0.29,22.0,2022-03-04 11:17:32.992,6
480,9972,0.76,-3.27,-0.4,22.0,2022-03-04 11:17:33.092,6
481,9994,0.69,-2.81,-0.54,22.0,2022-03-04 11:17:33.199,6
482,10014,0.46,-2.59,-0.32,22.0,2022-03-04 11:17:33.299,6
483,10034,0.46,-2.62,-0.36,22.0,2022-03-04 11:17:33.398,6
484,10054,0.45,-2.46,-0.65,22.0,2022-03-04 11:17:33.497,6
485,10074,0.36,-1.91,-0.32,22.0,2022-03-04 11:17:33.597,6
486,10094,0.28,-1.47,-0.27,22.0,2022-03-04 11:17:33.696,6
487,10118,0.19,-1.07,-0.39,22.0,2022-03-04 11:17:33.798,6
488,10138,0.25,-1.02,-0.32,11.9,2022-03-04 11:17:33.894,6
489,10158,0.19,-1.02,-0.31,11.9,2022-03-04 11:17:33.994,6
490,10180,0.18,-1.0,-0.25,11.9,2022-03-04 11:17:34.093,6
491,10200,0.14,-0.94,-0.25,11.9,2022-03-04 11:17:34.192,6
492,10220,-0.39,-0.89,-0.25,11.9,2022-03-04 11:17:34.291,6
493,10240,-0.34,1.08,0.25,11.9,2022-03-04 11:17:34.392,6
494,10260,-0.33,1.38,-0.23,11.9,2022-03-04 11:17:34.490,6
495,10282,-0.43,1.5,-0.26,11.9,2022-03-04 11:17:34.599,6
496,10300,-0.31,1.05,-0.36,11.9,2022-03-04 11:17:34.691,6
497,10326,-1.26,1.01,-0.5,11.9,2022-03-04 11:17:34.798,6
498,10346,-2.74,2.24,0.97,8.6,2022-03-04 11:17:34.899,6
499,10366,1.47,1.25,-0.43,8.6,2022-03-04 11:17:34.996,6
500,10388,-0.43,1.09,-0.3,8.6,2022-03-04 11:17:35.096,6
501,10408,-0.33,1.13,-0.2,8.6,2022-03-04 11:17:35.195,6
502,10428,-0.36,1.09,-0.24,8.6,2022-03-04 11:17:35.295,6
503,10448,-0.38,1.07,-0.21,8.6,2022-03-04 11:17:35.394,6
504,10468,-0.52,1.19,0.57,8.6,2022-03-04 11:17:35.493,6
505,10488,-0.39,1.15,-0.19,8.6,2022-03-04 11:17:35.592,0
506,10508,-0.47,1.21,-0.51,8.6,2022-03-04 11:17:35.691,0
507,10512,-0.12,1.02,-0.05,8.6,2022-03-04 11:17:35.709,0
