,LineNumber,Accel_X,Accel_Y,Accel_Z,Velocity,RealTime,Label
0,24,0.86,0.47,-0.44,4.3,2022-03-04 11:10:12.194,0
1,44,-0.36,0.46,-0.25,4.3,2022-03-04 11:10:12.293,0
2,64,-0.37,0.34,-0.27,4.3,2022-03-04 11:10:12.392,0
3,84,-0.34,0.43,-0.23,4.3,2022-03-04 11:10:12.491,0
4,104,-0.2,0.31,-0.28,4.3,2022-03-04 11:10:12.590,0
5,124,-0.26,0.31,-0.19,4.3,2022-03-04 11:10:12.690,0
6,150,-0.22,0.31,-0.21,4.3,2022-03-04 11:10:12.799,0
7,168,-0.24,0.22,-0.32,3.6,2022-03-04 11:10:12.888,0
8,190,-0.22,0.27,-0.23,3.6,2022-03-04 11:10:12.999,0
9,212,-0.28,0.23,-0.2,3.6,2022-03-04 11:10:13.098,0
10,232,-0.09,0.24,-0.26,3.6,2022-03-04 11:10:13.197,0
11,252,0.34,0.4,-0.22,3.6,2022-03-04 11:10:13.295,0
12,272,-0.24,0.15,-0.27,3.6,2022-03-04 11:10:13.395,0
13,292,-0.28,0.51,0.41,3.6,2022-03-04 11:10:13.495,0
14,312,-0.3,0.24,-0.83,3.6,2022-03-04 11:10:13.593,0
15,332,-0.2,0.2,-0.19,3.6,2022-03-04 11:10:13.693,0
16,356,-0.32,0.25,-0.28,3.6,2022-03-04 11:10:13.792,0
17,376,-0.37,0.24,-0.51,3.2,2022-03-04 11:10:13.891,0
18,396,0.37,0.23,0.47,3.2,2022-03-04 11:10:13.990,0
19,418,-0.28,0.22,-0.23,3.2,2022-03-04 11:10:14.090,0
20,440,-0.25,0.19,-0.19,3.2,2022-03-04 11:10:14.199,0
21,460,-0.24,0.2,-0.28,3.2,2022-03-04 11:10:14.299,0
22,480,-0.14,0.19,-0.25,3.2,2022-03-04 11:10:14.398,0
23,500,-0.29,0.22,-0.25,3.2,2022-03-04 11:10:14.497,0
24,520,-0.12,0.14,-0.2,3.2,2022-03-04 11:10:14.597,0
25,540,-0.24,0.15,-0.24,3.2,2022-03-04 11:10:14.697,3
26,564,-0.16,0.45,0.45,3.2,2022-03-04 11:10:14.794,3
27,584,0.42,0.52,-0.65,0.4,2022-03-04 11:10:14.894,3
28,604,-0.33,0.67,-0.42,0.4,2022-03-04 11:10:14.993,3
29,626,-0.44,0.8,-0.49,0.4,2022-03-04 11:10:15.092,3
30,646,-0.38,1.44,-0.57,0.4,2022-03-04 11:10:15.191,3
31,666,-0.6,2.19,0.46,0.4,2022-03-04 11:10:15.290,3
32,686,-0.89,2.84,0.41,0.4,2022-03-04 11:10:15.390,3
33,708,-0.93,3.26,1.13,0.4,2022-03-04 11:10:15.499,3
34,726,-1.04,3.8,-1.54,0.4,2022-03-04 11:10:15.588,3
35,748,-1.0,4.44,-1.84,0.4,2022-03-04 11:10:15.698,3
36,772,-1.52,4.8,2.53,0.4,2022-03-04 11:10:15.798,3
37,792,-2.51,5.75,-3.22,0.0,2022-03-04 11:10:15.896,3
38,812,-1.89,3.17,-2.43,0.0,2022-03-04 11:10:15.998,3
39,834,-0.87,1.74,-0.71,0.0,2022-03-04 11:10:16.095,3
40,854,-1.16,3.2,-0.72,0.0,2022-03-04 11:10:16.196,3
41,874,-1.09,3.48,1.59,0.0,2022-03-04 11:10:16.293,3
42,894,-1.37,2.72,-1.73,0.0,2022-03-04 11:10:16.393,3
43,914,-1.09,2.23,-0.87,0.0,2022-03-04 11:10:16.491,3
44,934,-1.02,3.31,0.99,0.0,2022-03-04 11:10:16.592,3
45,956,-1.32,3.11,-1.18,4.3,2022-03-04 11:10:16.698,3
46,980,-0.99,3.24,-1.35,4.3,2022-03-04 11:10:16.799,3
47,1000,-1.3,3.49,-1.63,4.3,2022-03-04 11:10:16.898,3
48,1020,-1.77,3.8,-1.83,4.3,2022-03-04 11:10:16.998,3
49,1042,-1.83,4.15,2.42,4.3,2022-03-04 11:10:17.097,3
50,1062,-1.62,3.74,-1.5,4.3,2022-03-04 11:10:17.199,3
51,1082,-1.97,4.5,0.93,4.3,2022-03-04 11:10:17.297,3
52,1102,-2.1,4.81,1.6,4.3,2022-03-04 11:10:17.396,3
53,1122,-1.95,5.28,3.47,4.3,2022-03-04 11:10:17.495,3
54,1142,-3.18,5.23,-4.49,4.3,2022-03-04 11:10:17.595,3
55,1162,-1.66,3.51,3.25,4.3,2022-03-04 11:10:17.693,3
56,1186,-1.13,2.25,-2.68,9.7,2022-03-04 11:10:17.794,3
57,1206,-0.99,2.76,-2.03,9.7,2022-03-04 11:10:17.891,3
58,1226,-1.04,3.61,2.53,9.7,2022-03-04 11:10:17.990,3
59,1248,-0.85,3.08,2.1,9.7,2022-03-04 11:10:18.098,3
60,1270,-1.08,3.24,-1.12,9.7,2022-03-04 11:10:18.199,3
61,1290,-1.06,1.86,-1.92,9.7,2022-03-04 11:10:18.298,3
62,1308,-0.59,-0.66,1.24,9.7,2022-03-04 11:10:18.388,3
63,1330,0.7,-0.52,1.28,9.7,2022-03-04 11:10:18.498,3
64,1350,1.08,-0.33,1.37,9.7,2022-03-04 11:10:18.597,3
65,1370,-0.7,-0.33,1.65,9.7,2022-03-04 11:10:18.697,3
66,1394,-1.0,-1.22,-2.12,28.1,2022-03-04 11:10:18.794,3
67,1414,-0.84,-0.7,-1.45,28.1,2022-03-04 11:10:18.895,3
68,1434,0.84,-0.56,1.26,28.1,2022-03-04 11:10:18.994,3
69,1456,1.05,0.55,1.33,28.1,2022-03-04 11:10:19.095,3
70,1476,-1.5,2.23,1.23,28.1,2022-03-04 11:10:19.191,3
71,1496,-1.37,2.18,-1.32,28.1,2022-03-04 11:10:19.291,3
72,1516,-1.54,2.82,-2.62,28.1,2022-03-04 11:10:19.394,3
73,1538,-1.41,3.45,-1.07,28.1,2022-03-04 11:10:19.499,3
74,1558,0.78,1.2,-1.35,28.1,2022-03-04 11:10:19.598,3
75,1576,-1.44,2.51,-0.62,28.1,2022-03-04 11:10:19.689,3
76,1602,-0.86,1.77,-1.19,34.9,2022-03-04 11:10:19.797,3
77,1622,-0.75,1.62,1.32,34.9,2022-03-04 11:10:19.897,3
78,1642,-0.68,1.49,0.63,34.9,2022-03-04 11:10:19.996,3
79,1664,-0.77,1.5,0.64,34.9,2022-03-04 11:10:20.095,3
80,1684,-0.81,1.63,-0.79,34.9,2022-03-04 11:10:20.194,3
81,1704,-0.81,1.63,0.95,34.9,2022-03-04 11:10:20.295,3
82,1724,-1.22,1.68,0.68,34.9,2022-03-04 11:10:20.394,3
83,1744,-0.92,1.73,-1.17,34.9,2022-03-04 11:10:20.493,3
84,1764,-1.34,1.95,-1.53,34.9,2022-03-04 11:10:20.593,3
85,1784,-1.61,2.0,1.38,34.9,2022-03-04 11:10:20.694,3
86,1810,-1.38,1.64,-1.51,38.9,2022-03-04 11:10:20.799,3
87,1830,-1.88,1.49,-1.52,38.9,2022-03-04 11:10:20.899,3
88,1850,-1.45,1.22,1.58,38.9,2022-03-04 11:10:20.999,3
89,1872,-1.4,0.79,-1.2,38.9,2022-03-04 11:10:21.097,3
90,1892,-1.18,1.22,-0.76,38.9,2022-03-04 11:10:21.197,3
91,1912,0.93,0.78,1.81,38.9,2022-03-04 11:10:21.296,3
92,1932,-1.22,0.84,-1.0,38.9,2022-03-04 11:10:21.395,3
93,1952,-1.08,0.94,1.19,38.9,2022-03-04 11:10:21.494,3
94,1972,-1.13,0.63,0.95,38.9,2022-03-04 11:10:21.595,3
95,1996,-0.96,0.49,-1.38,43.6,2022-03-04 11:10:21.693,3
96,2016,-0.91,0.64,1.15,43.6,2022-03-04 11:10:21.792,3
97,2036,-1.45,-1.02,-1.26,43.6,2022-03-04 11:10:21.892,3
98,2056,-0.8,0.55,-1.78,43.6,2022-03-04 11:10:21.992,3
99,2078,-2.17,0.92,-1.56,43.6,2022-03-04 11:10:22.092,3
100,2100,1.27,0.89,-2.28,43.6,2022-03-04 11:10:22.199,3
101,2120,-1.16,0.7,-1.59,43.6,2022-03-04 11:10:22.298,3
102,2140,-1.18,-0.36,1.05,43.6,2022-03-04 11:10:22.398,3
103,2160,-0.76,0.5,1.42,43.6,2022-03-04 11:10:22.497,3
104,2180,-1.67,0.53,-1.72,43.6,2022-03-04 11:10:22.596,3
105,2196,-1.7,0.53,-1.0,43.6,2022-03-04 11:10:22.677,3
106,2224,-1.35,0.32,-1.16,47.9,2022-03-04 11:10:22.794,3
107,2244,-0.82,-1.11,1.31,47.9,2022-03-04 11:10:22.894,3
108,2264,-0.54,-1.1,-0.86,47.9,2022-03-04 11:10:22.993,3
109,2286,1.13,-1.2,-1.09,47.9,2022-03-04 11:10:23.093,3
110,2306,0.67,-1.09,1.61,47.9,2022-03-04 11:10:23.192,3
111,2326,0.61,-0.95,-0.86,47.9,2022-03-04 11:10:23.291,3
112,2346,1.03,-0.95,0.91,47.9,2022-03-04 11:10:23.391,3
113,2366,0.58,-0.92,1.45,47.9,2022-03-04 11:10:23.490,3
114,2388,-0.95,1.2,1.24,47.9,2022-03-04 11:10:23.599,3
115,2408,-0.69,-1.24,-1.14,47.9,2022-03-04 11:10:23.698,3
116,2432,-1.24,1.4,1.08,49.7,2022-03-04 11:10:23.797,3
117,2452,-0.7,-0.84,0.89,49.7,2022-03-04 11:10:23.897,3
118,2472,-1.79,0.63,-1.18,49.7,2022-03-04 11:10:23.996,3
119,2494,-0.99,0.55,-2.02,49.7,2022-03-04 11:10:24.098,3
120,2514,-1.03,0.41,1.98,49.7,2022-03-04 11:10:24.194,3
121,2534,-0.72,0.79,-1.19,49.7,2022-03-04 11:10:24.294,3
122,2554,-1.25,0.82,-2.32,49.7,2022-03-04 11:10:24.394,3
123,2574,-0.83,0.96,-1.79,49.7,2022-03-04 11:10:24.493,3
124,2594,-0.89,1.14,-1.34,49.7,2022-03-04 11:10:24.592,3
125,2614,-0.73,0.81,-1.74,49.7,2022-03-04 11:10:24.693,3
126,2640,-1.08,0.53,-1.09,51.1,2022-03-04 11:10:24.799,3
127,2660,-0.6,0.33,-1.37,51.1,2022-03-04 11:10:24.899,3
128,2680,-0.81,0.59,-0.96,51.1,2022-03-04 11:10:24.998,3
129,2702,0.85,0.29,1.08,51.1,2022-03-04 11:10:25.098,3
130,2722,0.64,-0.53,1.11,51.1,2022-03-04 11:10:25.197,3
131,2742,0.29,-0.32,-1.16,51.1,2022-03-04 11:10:25.296,3
132,2762,0.66,-0.52,-1.38,51.1,2022-03-04 11:10:25.395,3
133,2782,0.88,-0.47,0.71,51.1,2022-03-04 11:10:25.495,3
134,2802,1.34,-0.52,1.98,51.1,2022-03-04 11:10:25.594,3
135,2822,0.59,-0.59,1.37,51.1,2022-03-04 11:10:25.695,3
136,2846,-1.11,-0.89,-0.99,53.3,2022-03-04 11:10:25.792,10
137,2866,-0.8,-1.03,-1.29,53.3,2022-03-04 11:10:25.893,10
138,2886,0.69,-0.94,0.82,53.3,2022-03-04 11:10:25.992,10
139,2908,0.58,-0.72,0.96,53.3,2022-03-04 11:10:26.091,10
140,2930,1.05,-0.81,-0.56,53.3,2022-03-04 11:10:26.199,10
141,2950,0.57,-0.83,-1.29,53.3,2022-03-04 11:10:26.298,10
142,2970,-0.64,-0.78,-1.25,53.3,2022-03-04 11:10:26.398,10
143,2990,1.77,-1.17,-1.05,53.3,2022-03-04 11:10:26.497,10
144,3010,1.78,-1.16,0.59,53.3,2022-03-04 11:10:26.597,10
145,3034,3.28,-1.12,-2.04,54.4,2022-03-04 11:10:26.696,10
146,3054,0.79,-0.76,-1.37,54.4,2022-03-04 11:10:26.795,10
147,3074,-0.63,-0.62,0.85,54.4,2022-03-04 11:10:26.894,10
148,3094,0.8,-0.69,0.96,54.4,2022-03-04 11:10:26.993,10
149,3116,0.87,-0.71,-0.93,54.4,2022-03-04 11:10:27.092,10
150,3136,0.61,-0.86,-0.73,54.4,2022-03-04 11:10:27.193,10
151,3156,0.58,-0.82,-0.88,54.4,2022-03-04 11:10:27.293,10
152,3176,0.81,-0.71,0.78,54.4,2022-03-04 11:10:27.391,10
153,3198,0.96,-0.78,-1.13,54.4,2022-03-04 11:10:27.499,10
154,3218,0.5,-0.62,1.03,54.4,2022-03-04 11:10:27.599,10
155,3238,0.53,-0.85,-0.56,55.8,2022-03-04 11:10:27.699,10
156,3262,0.69,-0.89,-0.48,55.8,2022-03-04 11:10:27.798,6
157,3282,1.0,-1.1,-0.95,55.8,2022-03-04 11:10:27.896,6
158,3302,1.18,-1.23,-0.48,55.8,2022-03-04 11:10:27.996,6
159,3324,0.62,-1.17,1.25,55.8,2022-03-04 11:10:28.095,6
160,3344,-0.79,-1.34,0.68,55.8,2022-03-04 11:10:28.194,6
161,3364,-0.86,-1.42,-0.75,55.8,2022-03-04 11:10:28.294,6
162,3384,-0.67,-1.42,-0.43,55.8,2022-03-04 11:10:28.396,6
163,3404,-0.7,-1.64,1.08,55.8,2022-03-04 11:10:28.492,6
164,3424,-0.53,-1.7,-1.2,55.8,2022-03-04 11:10:28.592,6
165,3444,-0.56,-1.52,0.47,55.8,2022-03-04 11:10:28.692,6
166,3468,0.59,-1.59,0.43,55.8,2022-03-04 11:10:28.791,6
167,3490,1.06,-1.91,-1.06,55.4,2022-03-04 11:10:28.899,6
168,3510,0.94,-1.71,-0.5,55.4,2022-03-04 11:10:28.998,6
169,3532,0.43,-1.64,-0.45,55.4,2022-03-04 11:10:29.099,6
170,3552,-0.59,-1.5,-0.74,55.4,2022-03-04 11:10:29.197,6
171,3572,0.67,-1.39,0.65,55.4,2022-03-04 11:10:29.296,6
172,3592,0.48,-1.38,-0.8,55.4,2022-03-04 11:10:29.396,6
173,3612,0.76,-1.3,0.67,55.4,2022-03-04 11:10:29.495,6
174,3632,-0.84,-1.28,-0.51,55.4,2022-03-04 11:10:29.594,6
175,3654,0.64,-1.32,-0.92,55.4,2022-03-04 11:10:29.698,6
176,3676,0.65,-1.47,-1.28,53.6,2022-03-04 11:10:29.792,6
177,3696,0.52,-1.47,-0.55,53.6,2022-03-04 11:10:29.892,6
178,3716,0.61,-1.21,-0.56,53.6,2022-03-04 11:10:29.991,6
179,3738,-0.51,-1.29,-0.78,53.6,2022-03-04 11:10:30.091,6
180,3760,0.76,-1.31,0.43,53.6,2022-03-04 11:10:30.199,6
181,3780,0.69,-1.22,-0.55,53.6,2022-03-04 11:10:30.299,6
182,3800,0.57,-0.94,-0.78,53.6,2022-03-04 11:10:30.398,6
183,3820,-2.07,-1.37,-2.03,53.6,2022-03-04 11:10:30.498,6
184,3840,1.87,-1.52,-1.97,53.6,2022-03-04 11:10:30.597,6
185,3860,1.3,-2.87,4.02,53.6,2022-03-04 11:10:30.697,6
186,3884,2.84,-1.66,2.7,53.6,2022-03-04 11:10:30.795,6
187,3904,0.62,-1.07,0.68,51.1,2022-03-04 11:10:30.894,6
188,3924,0.46,-1.03,-0.36,51.1,2022-03-04 11:10:30.994,6
189,3946,-0.7,-1.11,-0.99,51.1,2022-03-04 11:10:31.093,6
190,3966,-0.68,-0.89,-1.15,51.1,2022-03-04 11:10:31.193,6
191,3986,0.88,-1.13,0.52,51.1,2022-03-04 11:10:31.292,6
192,4006,-0.74,-1.07,-0.62,51.1,2022-03-04 11:10:31.391,6
193,4026,-0.38,-1.05,-0.72,51.1,2022-03-04 11:10:31.491,6
194,4046,0.61,-1.08,0.77,51.1,2022-03-04 11:10:31.590,6
195,4072,-0.37,-1.21,-0.88,51.1,2022-03-04 11:10:31.698,6
196,4092,0.47,-1.09,1.02,48.6,2022-03-04 11:10:31.798,6
197,4112,-0.8,-1.44,-1.05,48.6,2022-03-04 11:10:31.897,6
198,4130,0.5,-1.65,-1.15,48.6,2022-03-04 11:10:31.988,6
199,4154,0.52,-1.38,0.8,48.6,2022-03-04 11:10:32.095,6
200,4174,1.0,-1.64,0.63,48.6,2022-03-04 11:10:32.196,6
201,4194,0.95,-1.66,-0.56,48.6,2022-03-04 11:10:32.297,6
202,4214,0.87,-1.41,-0.47,48.6,2022-03-04 11:10:32.393,6
203,4234,1.23,-1.56,0.64,48.6,2022-03-04 11:10:32.492,6
204,4254,1.23,-1.47,-0.63,48.6,2022-03-04 11:10:32.592,6
205,4274,1.18,-1.62,-0.71,48.6,2022-03-04 11:10:32.691,6
206,4298,0.86,-1.61,-0.96,48.6,2022-03-04 11:10:32.791,6
207,4320,1.13,-1.6,0.66,45.4,2022-03-04 11:10:32.899,6
208,4340,1.04,-1.55,-0.44,45.4,2022-03-04 11:10:32.999,6
209,4362,0.48,-1.47,0.59,45.4,2022-03-04 11:10:33.098,6
210,4382,0.8,-1.49,0.9,45.4,2022-03-04 11:10:33.199,6
211,4402,0.8,-1.35,-0.84,45.4,2022-03-04 11:10:33.298,6
212,4422,0.77,-0.86,-1.08,45.4,2022-03-04 11:10:33.399,6
213,4442,0.62,-0.43,-0.64,45.4,2022-03-04 11:10:33.495,6
214,4462,1.14,-0.74,-0.93,45.4,2022-03-04 11:10:33.594,6
215,4482,0.89,-0.86,-0.62,45.4,2022-03-04 11:10:33.693,6
216,4506,1.11,-0.82,0.58,45.4,2022-03-04 11:10:33.793,6
217,4526,1.28,-0.92,0.68,42.5,2022-03-04 11:10:33.892,6
218,4546,1.2,-1.0,-0.51,42.5,2022-03-04 11:10:33.993,6
219,4568,1.02,-1.1,-0.51,42.5,2022-03-04 11:10:34.091,6
220,4588,1.3,-1.5,-0.67,42.5,2022-03-04 11:10:34.190,6
221,4608,1.53,-1.19,-0.63,42.5,2022-03-04 11:10:34.291,6
222,4628,1.05,-1.31,-1.01,42.5,2022-03-04 11:10:34.389,6
223,4650,1.28,-1.08,-0.7,42.5,2022-03-04 11:10:34.498,6
224,4670,1.1,-1.26,-0.59,42.5,2022-03-04 11:10:34.598,6
225,4690,1.15,-1.34,-0.54,42.5,2022-03-04 11:10:34.699,6
226,4714,1.22,-1.27,-0.78,42.5,2022-03-04 11:10:34.796,6
227,4734,1.63,-1.23,0.57,38.9,2022-03-04 11:10:34.894,6
228,4754,1.33,-1.23,-0.59,38.9,2022-03-04 11:10:34.994,6
229,4776,1.24,-1.15,0.62,38.9,2022-03-04 11:10:35.093,6
230,4796,1.14,-1.07,-0.28,38.9,2022-03-04 11:10:35.192,6
231,4816,0.89,-0.95,0.77,38.9,2022-03-04 11:10:35.293,6
232,4836,1.07,-1.01,0.67,38.9,2022-03-04 11:10:35.391,6
233,4856,1.51,-1.08,1.0,38.9,2022-03-04 11:10:35.491,6
234,4876,1.71,-1.15,-0.61,38.9,2022-03-04 11:10:35.590,6
235,4896,1.31,-1.06,-0.58,38.9,2022-03-04 11:10:35.689,6
236,4922,1.4,-0.69,0.78,38.9,2022-03-04 11:10:35.798,6
237,4942,1.07,-0.43,-1.08,34.6,2022-03-04 11:10:35.898,6
238,4962,2.17,-0.63,-0.84,34.6,2022-03-04 11:10:35.997,6
239,4984,1.24,-0.37,0.58,34.6,2022-03-04 11:10:36.096,9
240,5004,1.04,-0.56,0.69,34.6,2022-03-04 11:10:36.195,9
241,5024,0.81,-0.49,0.5,34.6,2022-03-04 11:10:36.294,9
242,5044,0.73,-0.44,-0.51,34.6,2022-03-04 11:10:36.393,9
243,5064,1.18,-0.81,-0.72,34.6,2022-03-04 11:10:36.493,9
244,5084,-0.52,-0.74,0.86,34.6,2022-03-04 11:10:36.592,9
245,5106,-1.31,-0.69,-0.75,34.6,2022-03-04 11:10:36.698,9
246,5128,-1.1,-1.06,0.67,29.9,2022-03-04 11:10:36.790,9
247,5148,-1.43,-0.95,0.49,29.9,2022-03-04 11:10:36.890,9
248,5168,-1.9,-0.96,-0.69,29.9,2022-03-04 11:10:36.989,9
249,5192,-2.11,-1.53,-0.74,29.9,2022-03-04 11:10:37.099,9
250,5212,-2.18,-1.52,0.81,29.9,2022-03-04 11:10:37.199,9
251,5232,-2.62,-1.74,-0.48,29.9,2022-03-04 11:10:37.298,9
252,5252,-2.57,-1.74,-0.79,29.9,2022-03-04 11:10:37.396,9
253,5272,-3.01,-1.76,-0.64,29.9,2022-03-04 11:10:37.496,9
254,5292,-3.67,-1.58,-0.95,29.9,2022-03-04 11:10:37.597,9
255,5312,-3.2,-1.62,1.26,29.9,2022-03-04 11:10:37.694,9
256,5336,-3.42,-1.46,-0.57,29.9,2022-03-04 11:10:37.795,9
257,5356,-2.92,-1.36,0.49,28.1,2022-03-04 11:10:37.892,9
258,5376,-3.44,-1.31,0.77,28.1,2022-03-04 11:10:37.992,9
259,5398,-3.46,-1.18,0.77,28.1,2022-03-04 11:10:38.091,9
260,5418,-3.95,-1.39,-0.38,28.1,2022-03-04 11:10:38.191,9
261,5438,-4.18,-1.51,0.71,28.1,2022-03-04 11:10:38.289,9
262,5458,-4.28,-1.72,0.35,28.1,2022-03-04 11:10:38.390,9
263,5480,-4.18,-1.87,-0.54,28.1,2022-03-04 11:10:38.499,9
264,5500,-4.3,-1.55,0.95,28.1,2022-03-04 11:10:38.599,9
265,5520,-4.04,-1.56,0.65,28.1,2022-03-04 11:10:38.697,9
266,5544,-3.95,-1.38,-0.44,28.1,2022-03-04 11:10:38.796,9
267,5564,-4.38,-1.51,0.68,24.8,2022-03-04 11:10:38.898,9
268,5584,-4.62,-1.82,0.76,24.8,2022-03-04 11:10:38.996,9
269,5606,-4.29,-1.65,0.79,24.8,2022-03-04 11:10:39.093,9
270,5626,-4.78,-1.98,0.89,24.8,2022-03-04 11:10:39.193,9
271,5646,-4.32,-1.7,0.72,24.8,2022-03-04 11:10:39.292,9
272,5666,-4.93,-1.27,1.21,24.8,2022-03-04 11:10:39.391,9
273,5686,-4.25,-1.19,-0.49,24.8,2022-03-04 11:10:39.490,9
274,5706,-4.05,-1.52,-0.6,24.8,2022-03-04 11:10:39.590,9
275,5726,-4.71,-1.24,0.58,24.8,2022-03-04 11:10:39.692,9
276,5752,-4.09,-1.66,0.47,24.8,2022-03-04 11:10:39.798,9
277,5772,-4.15,-1.68,0.55,19.8,2022-03-04 11:10:39.899,9
278,5792,-4.12,-2.01,0.75,19.8,2022-03-04 11:10:39.997,9
279,5814,-4.31,-2.07,-0.68,19.8,2022-03-04 11:10:40.098,9
280,5834,-4.3,-1.77,0.79,19.8,2022-03-04 11:10:40.197,9
281,5854,-4.16,-1.82,0.8,19.8,2022-03-04 11:10:40.297,9
282,5874,-4.25,-1.85,0.55,19.8,2022-03-04 11:10:40.399,9
283,5894,-4.03,-1.97,1.17,19.8,2022-03-04 11:10:40.494,9
284,5914,-4.11,-2.02,0.93,19.8,2022-03-04 11:10:40.593,9
285,5934,-4.02,-1.87,-0.85,19.8,2022-03-04 11:10:40.692,9
286,5958,-4.34,-2.16,-1.27,22.0,2022-03-04 11:10:40.791,9
287,5978,-4.43,-2.35,0.98,22.0,2022-03-04 11:10:40.892,9
288,5998,-4.17,-2.07,1.12,22.0,2022-03-04 11:10:40.989,9
289,6020,-4.38,-2.26,-1.38,22.0,2022-03-04 11:10:41.089,9
290,6042,-4.83,-2.21,0.63,22.0,2022-03-04 11:10:41.199,9
291,6062,-5.08,-1.99,-0.7,22.0,2022-03-04 11:10:41.298,9
292,6082,-4.72,-2.09,1.2,22.0,2022-03-04 11:10:41.397,9
293,6102,-4.97,-2.3,1.03,22.0,2022-03-04 11:10:41.497,9
294,6122,-5.45,-2.32,-0.9,22.0,2022-03-04 11:10:41.596,9
295,6142,-5.94,-2.51,1.39,22.0,2022-03-04 11:10:41.696,9
296,6166,-5.24,-2.54,-1.51,22.0,2022-03-04 11:10:41.796,9
297,6186,-5.62,-2.13,1.4,22.0,2022-03-04 11:10:41.893,9
298,6206,-6.01,-2.29,1.77,22.0,2022-03-04 11:10:41.992,9
299,6228,-5.66,-2.33,2.32,22.0,2022-03-04 11:10:42.091,9
300,6248,-5.49,-2.29,1.52,22.0,2022-03-04 11:10:42.190,9
301,6268,-4.78,-1.87,1.28,22.0,2022-03-04 11:10:42.290,9
302,6290,-5.25,-1.68,0.84,22.0,2022-03-04 11:10:42.399,9
303,6310,-4.25,-1.64,1.42,22.0,2022-03-04 11:10:42.498,9
304,6330,-3.04,-1.53,1.61,22.0,2022-03-04 11:10:42.598,9
305,6350,-2.46,-0.59,1.13,22.0,2022-03-04 11:10:42.697,9
306,6374,-1.45,-0.69,-1.33,18.7,2022-03-04 11:10:42.798,9
307,6394,0.96,0.5,-1.25,18.7,2022-03-04 11:10:42.896,9
308,6414,-0.73,0.66,-1.14,18.7,2022-03-04 11:10:42.995,3
309,6436,-1.07,0.67,0.67,18.7,2022-03-04 11:10:43.096,3
310,6456,-0.93,1.17,1.52,18.7,2022-03-04 11:10:43.195,3
311,6476,-1.16,0.76,1.96,18.7,2022-03-04 11:10:43.293,3
312,6496,-1.1,1.08,1.88,18.7,2022-03-04 11:10:43.394,3
313,6516,-0.91,1.24,2.34,18.7,2022-03-04 11:10:43.491,3
314,6536,-0.7,0.71,-2.38,18.7,2022-03-04 11:10:43.590,3
315,6556,0.96,1.46,-2.46,18.7,2022-03-04 11:10:43.690,3
316,6582,0.89,1.33,2.94,20.9,2022-03-04 11:10:43.799,3
317,6602,0.94,1.68,2.28,20.9,2022-03-04 11:10:43.898,3
318,6622,1.39,1.59,-2.69,20.9,2022-03-04 11:10:43.997,3
319,6644,1.07,1.66,1.21,20.9,2022-03-04 11:10:44.099,3
320,6664,0.99,1.44,2.23,20.9,2022-03-04 11:10:44.196,3
321,6684,1.61,-1.58,1.46,20.9,2022-03-04 11:10:44.296,3
322,6704,2.13,-1.89,-1.19,20.9,2022-03-04 11:10:44.395,3
323,6724,1.72,-1.35,0.89,20.9,2022-03-04 11:10:44.494,3
324,6744,1.97,-0.95,-1.34,20.9,2022-03-04 11:10:44.594,3
325,6764,1.95,-1.22,0.71,20.9,2022-03-04 11:10:44.693,3
326,6788,2.01,-0.74,1.05,31.0,2022-03-04 11:10:44.791,3
327,6808,1.88,-0.95,-1.08,31.0,2022-03-04 11:10:44.890,3
328,6828,1.58,-0.88,-0.96,31.0,2022-03-04 11:10:44.990,3
329,6852,1.03,-0.53,1.01,31.0,2022-03-04 11:10:45.099,3
330,6870,1.13,-0.6,0.73,31.0,2022-03-04 11:10:45.189,3
331,6892,1.22,-1.1,-0.57,31.0,2022-03-04 11:10:45.299,3
332,6912,0.78,-0.83,0.43,31.0,2022-03-04 11:10:45.397,3
333,6932,0.97,-2.0,-0.63,31.0,2022-03-04 11:10:45.496,3
334,6952,1.09,-1.57,0.87,31.0,2022-03-04 11:10:45.596,3
335,6972,0.91,-1.95,-0.87,31.0,2022-03-04 11:10:45.695,3
336,6996,1.17,-1.77,-0.74,38.5,2022-03-04 11:10:45.794,3
337,7016,1.04,-1.9,1.07,38.5,2022-03-04 11:10:45.895,3
338,7036,-0.95,-2.04,1.07,38.5,2022-03-04 11:10:45.994,3
339,7058,-0.65,0.47,-1.67,38.5,2022-03-04 11:10:46.093,3
340,7078,-0.59,0.56,-1.18,38.5,2022-03-04 11:10:46.194,3
341,7098,0.98,-1.16,-1.21,38.5,2022-03-04 11:10:46.290,3
342,7120,0.9,-1.09,1.48,38.5,2022-03-04 11:10:46.399,3
343,7140,0.66,-0.78,-1.67,38.5,2022-03-04 11:10:46.498,3
344,7158,-1.11,-0.69,-1.32,38.5,2022-03-04 11:10:46.589,3
345,7180,1.37,-0.76,-1.85,38.5,2022-03-04 11:10:46.698,3
346,7204,1.07,-0.85,-1.3,41.8,2022-03-04 11:10:46.797,3
347,7224,1.18,-0.81,-1.11,41.8,2022-03-04 11:10:46.896,3
348,7244,-1.51,-0.59,-1.6,41.8,2022-03-04 11:10:46.997,3
349,7266,1.09,0.7,1.16,41.8,2022-03-04 11:10:47.094,3
350,7286,2.26,1.04,-2.01,41.8,2022-03-04 11:10:47.194,3
351,7306,1.35,1.03,-3.02,41.8,2022-03-04 11:10:47.294,3
352,7326,1.74,1.05,-2.76,41.8,2022-03-04 11:10:47.392,3
353,7346,2.17,0.89,3.28,41.8,2022-03-04 11:10:47.492,3
354,7366,-1.45,1.21,-3.15,41.8,2022-03-04 11:10:47.592,3
355,7386,1.14,-1.19,-3.07,41.8,2022-03-04 11:10:47.693,3
356,7410,1.15,-1.0,1.73,41.8,2022-03-04 11:10:47.789,3
357,7432,0.58,-0.78,1.37,41.8,2022-03-04 11:10:47.898,3
358,7450,0.88,-0.83,0.71,41.8,2022-03-04 11:10:47.988,3
359,7474,-0.96,-0.64,1.38,41.8,2022-03-04 11:10:48.096,3
360,7494,-0.56,-0.41,1.68,41.8,2022-03-04 11:10:48.196,3
361,7514,-1.14,-0.66,1.03,41.8,2022-03-04 11:10:48.295,3
362,7534,-1.42,-0.8,-1.52,41.8,2022-03-04 11:10:48.396,3
363,7554,-0.54,-0.54,-1.25,41.8,2022-03-04 11:10:48.495,3
364,7574,0.56,-0.52,1.05,41.8,2022-03-04 11:10:48.594,3
365,7596,0.68,-0.41,-1.04,44.6,2022-03-04 11:10:48.695,3
366,7618,0.7,-0.88,-1.73,44.6,2022-03-04 11:10:48.792,3
367,7638,0.68,-0.97,-1.23,44.6,2022-03-04 11:10:48.891,3
368,7658,-1.15,-0.73,1.81,44.6,2022-03-04 11:10:48.991,3
369,7682,0.98,-0.73,-1.17,44.6,2022-03-04 11:10:49.099,3
370,7702,0.65,-0.7,1.24,44.6,2022-03-04 11:10:49.198,3
371,7722,-0.47,-0.5,-1.29,44.6,2022-03-04 11:10:49.298,3
372,7742,0.84,-0.8,-1.53,44.6,2022-03-04 11:10:49.398,3
373,7762,0.6,-0.66,-1.72,44.6,2022-03-04 11:10:49.497,3
374,7782,0.68,-0.66,2.12,44.6,2022-03-04 11:10:49.595,3
375,7802,0.65,-0.67,2.66,44.6,2022-03-04 11:10:49.695,3
376,7826,1.3,-0.32,-1.74,47.9,2022-03-04 11:10:49.794,3
377,7846,0.66,-0.4,-2.02,47.9,2022-03-04 11:10:49.895,3
378,7866,-1.16,-0.7,1.87,47.9,2022-03-04 11:10:49.993,3
379,7888,-1.1,-0.69,2.9,47.9,2022-03-04 11:10:50.093,3
380,7908,0.82,-1.26,-1.7,47.9,2022-03-04 11:10:50.192,3
381,7928,0.64,-0.9,0.99,47.9,2022-03-04 11:10:50.292,3
382,7948,0.74,-1.09,-1.46,47.9,2022-03-04 11:10:50.390,3
383,7970,0.63,-0.81,1.18,47.9,2022-03-04 11:10:50.499,3
384,7990,0.55,-0.67,1.57,47.9,2022-03-04 11:10:50.598,3
385,8010,0.92,-0.54,-1.9,47.9,2022-03-04 11:10:50.698,3
386,8034,-0.55,-0.38,-1.81,50.4,2022-03-04 11:10:50.796,3
387,8054,0.61,-0.77,-1.62,50.4,2022-03-04 11:10:50.897,3
388,8074,0.62,-1.54,0.91,50.4,2022-03-04 11:10:50.995,3
389,8096,0.9,-1.68,0.67,50.4,2022-03-04 11:10:51.095,10
390,8116,0.58,-1.29,1.1,50.4,2022-03-04 11:10:51.195,10
391,8136,-0.63,-1.46,-0.85,50.4,2022-03-04 11:10:51.293,10
392,8156,-0.49,-1.6,-0.72,50.4,2022-03-04 11:10:51.392,10
393,8176,-0.47,-1.46,-1.02,50.4,2022-03-04 11:10:51.493,10
394,8196,0.75,-1.53,-0.94,50.4,2022-03-04 11:10:51.591,10
395,8216,0.57,-1.31,0.66,50.4,2022-03-04 11:10:51.693,10
396,8242,0.72,-1.31,0.82,51.8,2022-03-04 11:10:51.799,10
397,8262,0.69,-1.36,1.01,51.8,2022-03-04 11:10:51.898,10
398,8282,0.96,-1.43,1.22,51.8,2022-03-04 11:10:51.998,10
399,8304,-0.73,-1.61,-1.06,51.8,2022-03-04 11:10:52.097,10
400,8324,-0.7,-1.18,-0.61,51.8,2022-03-04 11:10:52.196,10
401,8344,-0.95,-1.31,1.02,51.8,2022-03-04 11:10:52.296,10
402,8362,1.03,-1.29,0.76,51.8,2022-03-04 11:10:52.385,10
403,8384,-1.14,-1.17,1.39,51.8,2022-03-04 11:10:52.494,10
404,8404,1.24,-1.34,1.37,51.8,2022-03-04 11:10:52.593,10
405,8424,0.67,-1.06,0.96,51.8,2022-03-04 11:10:52.693,10
406,8448,0.87,-1.18,-0.72,51.8,2022-03-04 11:10:52.792,10
407,8468,-1.18,-1.46,-1.39,51.8,2022-03-04 11:10:52.892,10
408,8488,1.04,-1.44,0.88,51.8,2022-03-04 11:10:52.992,10
409,8510,0.99,-1.05,-0.94,51.8,2022-03-04 11:10:53.090,10
410,8532,-0.84,-1.02,1.38,51.8,2022-03-04 11:10:53.199,10
411,8552,-1.56,-1.39,1.2,51.8,2022-03-04 11:10:53.298,10
412,8572,0.91,-1.23,1.06,51.8,2022-03-04 11:10:53.399,10
413,8592,0.76,-1.28,1.12,51.8,2022-03-04 11:10:53.497,10
414,8612,0.77,-1.04,-0.86,51.8,2022-03-04 11:10:53.596,10
415,8632,-0.72,-1.29,-0.69,51.8,2022-03-04 11:10:53.699,10
416,8656,-0.61,-1.02,1.44,51.8,2022-03-04 11:10:53.794,10
417,8676,0.72,-1.16,-0.95,51.5,2022-03-04 11:10:53.894,10
418,8696,-0.81,-1.32,0.8,51.5,2022-03-04 11:10:53.994,10
419,8718,0.7,-1.09,1.44,51.5,2022-03-04 11:10:54.092,10
420,8738,0.73,-1.17,-1.13,51.5,2022-03-04 11:10:54.192,10
421,8758,0.42,-1.37,-1.86,51.5,2022-03-04 11:10:54.291,10
422,8778,-0.64,-1.46,-0.92,51.5,2022-03-04 11:10:54.390,10
423,8800,-0.38,-1.16,-0.99,51.5,2022-03-04 11:10:54.499,10
424,8820,0.71,-1.03,-1.01,51.5,2022-03-04 11:10:54.599,10
425,8840,0.86,-1.14,-0.85,51.5,2022-03-04 11:10:54.698,10
426,8864,0.67,-1.16,-0.93,51.5,2022-03-04 11:10:54.797,10
427,8884,-0.53,-1.07,-0.85,51.5,2022-03-04 11:10:54.896,10
428,8904,0.68,-1.17,-0.45,51.5,2022-03-04 11:10:54.996,10
429,8926,1.01,-1.13,-0.8,51.5,2022-03-04 11:10:55.095,10
430,8946,0.63,-1.22,-1.07,51.5,2022-03-04 11:10:55.194,10
431,8966,0.53,-0.99,1.19,51.5,2022-03-04 11:10:55.293,10
432,8986,0.54,-1.04,1.03,51.5,2022-03-04 11:10:55.392,10
433,9006,0.47,-1.19,1.47,51.5,2022-03-04 11:10:55.492,10
434,9026,0.89,-1.12,0.97,51.5,2022-03-04 11:10:55.591,10
435,9046,0.58,-1.21,-1.02,51.5,2022-03-04 11:10:55.690,10
436,9070,-0.49,-0.86,-1.05,51.5,2022-03-04 11:10:55.790,10
437,9090,0.98,-1.1,-0.63,50.4,2022-03-04 11:10:55.889,10
438,9112,-0.32,-1.1,0.8,50.4,2022-03-04 11:10:55.999,10
439,9134,0.72,-0.84,0.45,50.4,2022-03-04 11:10:56.097,10
440,9154,0.79,-1.12,0.79,50.4,2022-03-04 11:10:56.196,10
441,9174,0.84,-0.99,0.8,50.4,2022-03-04 11:10:56.296,10
442,9194,0.77,-1.15,-1.48,50.4,2022-03-04 11:10:56.395,10
443,9214,0.59,-1.21,-0.79,50.4,2022-03-04 11:10:56.495,10
444,9234,0.57,-1.31,-1.16,50.4,2022-03-04 11:10:56.594,10
445,9254,0.41,-0.98,-0.63,50.4,2022-03-04 11:10:56.693,10
446,9278,0.68,-1.07,-0.98,50.4,2022-03-04 11:10:56.792,10
447,9298,-1.06,-0.84,0.84,50.0,2022-03-04 11:10:56.892,10
448,9318,-0.7,-0.94,-0.62,50.0,2022-03-04 11:10:56.991,6
449,9340,0.69,-1.3,-0.47,50.0,2022-03-04 11:10:57.093,6
450,9362,0.8,-1.45,1.01,50.0,2022-03-04 11:10:57.199,6
451,9382,0.58,-1.91,-0.86,50.0,2022-03-04 11:10:57.299,6
452,9402,0.77,-2.49,0.72,50.0,2022-03-04 11:10:57.398,6
453,9422,0.95,-2.49,1.46,50.0,2022-03-04 11:10:57.497,6
454,9442,1.2,-2.64,0.75,50.0,2022-03-04 11:10:57.596,6
455,9466,1.01,-2.8,-0.69,50.0,2022-03-04 11:10:57.696,6
456,9486,1.42,-2.95,-0.92,49.3,2022-03-04 11:10:57.795,6
457,9506,1.09,-3.34,-0.81,49.3,2022-03-04 11:10:57.894,6
458,9526,1.61,-3.5,-1.18,49.3,2022-03-04 11:10:57.993,6
459,9548,1.22,-3.91,-0.52,49.3,2022-03-04 11:10:58.093,6
460,9568,1.33,-4.22,0.54,49.3,2022-03-04 11:10:58.192,6
461,9588,1.17,-4.45,-0.61,49.3,2022-03-04 11:10:58.291,6
462,9608,1.05,-4.42,-0.89,49.3,2022-03-04 11:10:58.390,6
463,9628,1.32,-4.25,0.6,49.3,2022-03-04 11:10:58.490,6
464,9650,1.79,-4.49,0.67,49.3,2022-03-04 11:10:58.599,6
465,9670,1.32,-4.83,1.1,49.3,2022-03-04 11:10:58.699,6
466,9694,1.19,-5.12,-1.19,49.3,2022-03-04 11:10:58.797,6
467,9714,1.26,-4.99,-0.85,46.8,2022-03-04 11:10:58.896,6
468,9734,1.4,-5.16,0.99,46.8,2022-03-04 11:10:58.997,6
469,9756,1.05,-5.24,-1.2,46.8,2022-03-04 11:10:59.099,6
470,9776,1.25,-5.54,1.42,46.8,2022-03-04 11:10:59.194,6
471,9796,1.42,-5.36,1.28,46.8,2022-03-04 11:10:59.294,6
472,9816,1.36,-5.61,-1.6,46.8,2022-03-04 11:10:59.393,6
473,9836,1.16,-5.28,-1.25,46.8,2022-03-04 11:10:59.492,6
474,9856,1.16,-5.18,-1.22,46.8,2022-03-04 11:10:59.592,6
475,9876,1.44,-5.28,0.76,46.8,2022-03-04 11:10:59.692,6
476,9900,1.55,-4.76,0.74,46.8,2022-03-04 11:10:59.790,6
477,9920,0.93,-3.69,-0.77,42.1,2022-03-04 11:10:59.889,6
478,9942,0.57,-3.66,-0.82,42.1,2022-03-04 11:10:59.998,6
479,9964,0.88,-3.56,-0.89,42.1,2022-03-04 11:11:00.099,6
480,9984,0.73,-3.41,0.41,42.1,2022-03-04 11:11:00.198,6
481,10004,0.78,-2.73,-0.33,42.1,2022-03-04 11:11:00.296,6
482,10024,0.66,-2.27,-0.59,42.1,2022-03-04 11:11:00.396,6
483,10044,0.44,-2.28,-0.28,42.1,2022-03-04 11:11:00.495,6
484,10064,0.47,-2.17,-0.26,42.1,2022-03-04 11:11:00.594,6
485,10084,0.4,-2.0,-0.26,42.1,2022-03-04 11:11:00.693,6
486,10108,0.33,-1.53,-0.37,42.1,2022-03-04 11:11:00.792,6
487,10128,0.3,-1.36,-0.17,26.3,2022-03-04 11:11:00.892,6
488,10148,0.23,-0.99,-0.21,26.3,2022-03-04 11:11:00.991,6
489,10170,-0.24,-0.75,-0.18,26.3,2022-03-04 11:11:01.090,6
490,10190,0.14,-0.69,-0.24,26.3,2022-03-04 11:11:01.189,6
491,10210,-0.13,-0.68,-0.27,26.3,2022-03-04 11:11:01.290,6
492,10230,-0.16,-0.64,-0.18,26.3,2022-03-04 11:11:01.388,6
493,10250,-0.35,0.48,0.19,26.3,2022-03-04 11:11:01.488,6
494,10272,-0.41,1.13,0.16,26.3,2022-03-04 11:11:01.597,6
495,10292,-0.44,1.42,-0.27,26.3,2022-03-04 11:11:01.696,6
496,10314,-0.53,1.42,-0.32,26.3,2022-03-04 11:11:01.794,6
497,10336,-0.45,1.31,-0.27,4.3,2022-03-04 11:11:01.894,6
498,10356,-0.47,0.94,-0.22,4.3,2022-03-04 11:11:01.993,6
499,10378,-0.39,0.84,-0.18,4.3,2022-03-04 11:11:02.093,0
500,10398,-0.35,1.03,0.17,4.3,2022-03-04 11:11:02.192,0
501,10418,-0.37,0.9,-0.28,4.3,2022-03-04 11:11:02.292,0
502,10438,-0.46,1.66,-0.53,4.3,2022-03-04 11:11:02.391,0
503,10458,-0.39,0.94,-0.17,4.3,2022-03-04 11:11:02.490,0
504,10480,-0.33,0.86,-0.27,4.3,2022-03-04 11:11:02.599,0
505,10498,-0.38,0.77,-0.14,4.3,2022-03-04 11:11:02.690,0
506,10524,-0.36,0.73,-0.22,4.3,2022-03-04 11:11:02.798,0
507,10544,-0.26,0.73,-0.19,3.6,2022-03-04 11:11:02.898,0
508,10564,-0.35,0.68,-0.33,3.6,2022-03-04 11:11:02.996,0
509,10586,-0.32,0.68,-0.27,3.6,2022-03-04 11:11:03.096,0
510,10606,-0.32,0.68,-0.56,3.6,2022-03-04 11:11:03.194,0
511,10626,-0.2,0.6,-0.23,3.6,2022-03-04 11:11:03.294,0
512,10646,-0.47,0.6,-0.4,3.6,2022-03-04 11:11:03.393,0
513,10666,-0.33,0.62,-0.49,3.6,2022-03-04 11:11:03.492,0
514,10686,-0.29,0.6,-0.5,3.6,2022-03-04 11:11:03.592,0
515,10706,-0.25,0.58,-0.27,3.6,2022-03-04 11:11:03.691,0
516,10712,-0.08,0.62,-0.15,4.7,2022-03-04 11:11:03.712,0
