,LineNumber,Accel_X,Accel_Y,Accel_Z,Velocity,RealTime,Label
0,30,-0.29,0.36,-0.26,0.0,2022-03-04 10:29:40.098,0
1,50,-0.26,0.41,-0.29,0.0,2022-03-04 10:29:40.194,0
2,74,-0.25,0.36,-0.26,0.0,2022-03-04 10:29:40.295,0
3,94,-0.26,0.34,-0.22,0.0,2022-03-04 10:29:40.394,0
4,114,-0.31,0.34,-0.24,0.0,2022-03-04 10:29:40.494,0
5,136,-0.31,0.34,-0.26,0.0,2022-03-04 10:29:40.593,0
6,156,-0.28,0.29,-0.33,0.0,2022-03-04 10:29:40.692,0
7,176,-0.3,0.33,-0.21,0.0,2022-03-04 10:29:40.792,0
8,196,-0.24,0.33,-0.27,0.0,2022-03-04 10:29:40.891,0
9,216,-0.3,0.31,-0.27,0.0,2022-03-04 10:29:40.990,0
10,236,-0.27,0.28,-0.29,0.0,2022-03-04 10:29:41.092,0
11,258,-0.3,0.29,-0.23,0.0,2022-03-04 10:29:41.199,0
12,282,-0.19,0.31,-0.23,0.0,2022-03-04 10:29:41.299,0
13,302,-0.3,0.25,-0.3,0.0,2022-03-04 10:29:41.398,0
14,322,-0.23,0.26,-0.32,0.0,2022-03-04 10:29:41.496,0
15,344,-0.29,0.27,-0.21,0.0,2022-03-04 10:29:41.596,0
16,364,-0.24,0.27,-0.24,0.0,2022-03-04 10:29:41.695,0
17,384,-0.29,0.24,-0.32,0.0,2022-03-04 10:29:41.797,0
18,404,-0.21,0.26,-0.24,0.0,2022-03-04 10:29:41.894,0
19,424,-0.29,0.26,-0.32,0.0,2022-03-04 10:29:41.992,0
20,444,-0.28,0.26,-0.23,0.0,2022-03-04 10:29:42.092,0
21,464,-0.25,0.2,-0.31,0.0,2022-03-04 10:29:42.191,0
22,488,-0.23,0.25,-0.33,0.0,2022-03-04 10:29:42.291,0
23,508,-0.24,0.31,-0.22,0.0,2022-03-04 10:29:42.389,0
24,528,-0.21,0.19,-0.38,0.0,2022-03-04 10:29:42.489,0
25,550,-0.23,0.26,-0.32,0.0,2022-03-04 10:29:42.588,0
26,572,-0.21,0.25,-0.19,0.0,2022-03-04 10:29:42.699,0
27,592,-0.25,0.19,-0.32,0.0,2022-03-04 10:29:42.798,0
28,612,-0.24,0.3,-0.25,0.0,2022-03-04 10:29:42.896,0
29,632,-0.2,0.17,-0.28,0.0,2022-03-04 10:29:42.995,0
30,652,-0.22,0.29,-0.3,0.0,2022-03-04 10:29:43.095,0
31,676,-0.24,0.25,-0.17,0.0,2022-03-04 10:29:43.194,0
32,696,-0.24,0.19,-0.28,0.0,2022-03-04 10:29:43.294,0
33,716,-0.25,0.25,-0.18,0.0,2022-03-04 10:29:43.392,0
34,736,0.4,0.23,-0.41,0.0,2022-03-04 10:29:43.492,0
35,758,-0.27,0.19,-0.34,0.0,2022-03-04 10:29:43.591,0
36,778,-0.27,0.21,-0.23,0.0,2022-03-04 10:29:43.690,0
37,798,-0.23,0.31,-0.4,0.0,2022-03-04 10:29:43.789,0
38,818,-0.22,0.22,-0.31,0.0,2022-03-04 10:29:43.890,0
39,840,-0.24,0.22,-0.3,0.0,2022-03-04 10:29:43.999,0
40,860,0.29,-0.5,0.98,0.0,2022-03-04 10:29:44.098,0
41,884,-0.26,0.12,-0.33,0.0,2022-03-04 10:29:44.197,0
42,904,-0.23,0.19,-0.25,0.0,2022-03-04 10:29:44.298,0
43,924,-0.27,0.22,-0.32,0.0,2022-03-04 10:29:44.395,0
44,944,-0.19,0.21,-0.26,0.0,2022-03-04 10:29:44.495,0
45,966,-0.21,0.17,-0.26,0.0,2022-03-04 10:29:44.593,0
46,986,-0.27,0.24,-0.31,0.0,2022-03-04 10:29:44.692,0
47,1006,-0.2,0.19,-0.24,0.0,2022-03-04 10:29:44.792,0
48,1026,-0.27,0.19,-0.3,0.0,2022-03-04 10:29:44.892,0
49,1046,-0.24,0.19,-0.28,0.0,2022-03-04 10:29:44.995,0
50,1066,-0.27,0.23,-0.27,0.0,2022-03-04 10:29:45.090,0
51,1090,-0.19,0.18,-0.34,0.0,2022-03-04 10:29:45.189,0
52,1112,-0.3,0.2,-0.3,0.0,2022-03-04 10:29:45.298,0
53,1132,-0.27,0.17,-0.24,0.0,2022-03-04 10:29:45.399,0
54,1152,-0.25,0.14,-0.27,0.0,2022-03-04 10:29:45.497,0
55,1174,-0.27,0.17,-0.22,0.0,2022-03-04 10:29:45.596,0
56,1194,-0.21,0.2,-0.32,0.0,2022-03-04 10:29:45.696,0
57,1214,-0.3,0.19,-0.24,0.0,2022-03-04 10:29:45.798,0
58,1234,-0.38,0.21,-0.29,0.0,2022-03-04 10:29:45.894,1
59,1254,-0.13,0.18,-0.39,0.0,2022-03-04 10:29:45.993,1
60,1274,-0.2,0.16,-0.53,0.0,2022-03-04 10:29:46.092,1
61,1298,-0.16,0.34,-0.51,0.0,2022-03-04 10:29:46.196,1
62,1318,-0.23,0.34,-0.34,0.0,2022-03-04 10:29:46.290,1
63,1338,-0.48,0.73,-0.22,0.0,2022-03-04 10:29:46.391,1
64,1360,-0.33,0.88,-0.7,0.0,2022-03-04 10:29:46.499,1
65,1382,-0.5,0.99,-0.42,0.0,2022-03-04 10:29:46.598,1
66,1402,-0.5,1.21,-0.3,0.0,2022-03-04 10:29:46.698,1
67,1422,-0.46,1.26,-0.43,0.0,2022-03-04 10:29:46.798,1
68,1442,-0.4,1.34,-0.6,0.0,2022-03-04 10:29:46.897,1
69,1462,-0.63,1.45,-0.47,0.0,2022-03-04 10:29:46.996,1
70,1482,-0.61,1.29,-0.54,0.0,2022-03-04 10:29:47.095,1
71,1506,-0.51,1.45,0.46,0.0,2022-03-04 10:29:47.195,1
72,1526,-0.57,1.39,-0.48,0.0,2022-03-04 10:29:47.296,1
73,1546,-0.43,1.47,-0.45,0.0,2022-03-04 10:29:47.393,1
74,1566,-0.65,1.82,-0.64,0.0,2022-03-04 10:29:47.492,1
75,1588,-0.72,1.98,0.63,0.0,2022-03-04 10:29:47.591,1
76,1608,-0.77,2.05,-0.64,0.0,2022-03-04 10:29:47.690,1
77,1628,-1.2,2.2,-0.65,0.0,2022-03-04 10:29:47.790,1
78,1650,-0.8,2.71,-0.88,0.0,2022-03-04 10:29:47.899,1
79,1670,-0.56,2.86,-1.18,0.0,2022-03-04 10:29:47.999,1
80,1688,-0.87,3.01,-0.96,0.0,2022-03-04 10:29:48.087,1
81,1714,-0.89,2.79,-1.21,7.9,2022-03-04 10:29:48.197,1
82,1734,-0.79,2.84,-1.24,7.9,2022-03-04 10:29:48.297,1
83,1754,-0.85,2.64,1.14,7.9,2022-03-04 10:29:48.395,1
84,1774,-0.77,2.6,-0.98,7.9,2022-03-04 10:29:48.495,1
85,1796,-0.68,2.27,-0.87,7.9,2022-03-04 10:29:48.594,1
86,1816,0.6,1.09,-0.79,7.9,2022-03-04 10:29:48.695,1
87,1836,0.77,0.68,-0.35,7.9,2022-03-04 10:29:48.792,1
88,1856,-0.71,1.37,-0.53,7.9,2022-03-04 10:29:48.895,1
89,1876,-0.43,1.3,-0.54,7.9,2022-03-04 10:29:48.991,1
90,1896,-0.63,0.8,-0.78,7.9,2022-03-04 10:29:49.090,1
91,1922,-0.37,0.37,0.79,13.3,2022-03-04 10:29:49.199,1
92,1942,0.42,0.78,-0.32,13.3,2022-03-04 10:29:49.298,1
93,1962,-0.41,0.9,-0.66,13.3,2022-03-04 10:29:49.398,1
94,1982,-0.34,0.81,-0.43,13.3,2022-03-04 10:29:49.497,1
95,2004,-0.5,0.77,-0.43,13.3,2022-03-04 10:29:49.597,1
96,2024,-0.4,0.77,0.51,13.3,2022-03-04 10:29:49.696,1
97,2044,-0.55,0.74,-0.67,13.3,2022-03-04 10:29:49.796,1
98,2064,-0.47,0.74,-0.72,13.3,2022-03-04 10:29:49.895,1
99,2084,-0.43,0.63,-0.77,13.3,2022-03-04 10:29:49.994,1
100,2104,-0.31,0.68,-0.86,13.3,2022-03-04 10:29:50.094,1
101,2128,-0.52,0.6,0.54,16.2,2022-03-04 10:29:50.194,1
102,2148,-0.39,0.64,-0.8,16.2,2022-03-04 10:29:50.291,1
103,2168,0.44,0.67,0.62,16.2,2022-03-04 10:29:50.394,1
104,2190,0.62,0.63,0.95,16.2,2022-03-04 10:29:50.499,1
105,2212,0.2,0.63,-0.89,16.2,2022-03-04 10:29:50.599,1
106,2232,0.35,0.7,-0.34,16.2,2022-03-04 10:29:50.698,1
107,2252,0.5,0.61,0.3,16.2,2022-03-04 10:29:50.799,1
108,2272,0.2,0.64,-0.33,16.2,2022-03-04 10:29:50.898,1
109,2292,-0.42,0.54,-0.61,16.2,2022-03-04 10:29:50.996,1
110,2312,-0.42,0.52,-0.6,16.2,2022-03-04 10:29:51.096,1
111,2336,0.51,0.48,-0.48,19.4,2022-03-04 10:29:51.195,1
112,2356,0.56,0.66,-0.37,19.4,2022-03-04 10:29:51.294,1
113,2376,0.46,0.69,0.42,19.4,2022-03-04 10:29:51.395,1
114,2396,-0.54,0.58,-0.65,19.4,2022-03-04 10:29:51.493,1
115,2418,-0.91,0.36,-0.57,19.4,2022-03-04 10:29:51.593,1
116,2438,-0.8,0.4,-0.54,19.4,2022-03-04 10:29:51.691,1
117,2460,-0.85,0.62,-0.58,19.4,2022-03-04 10:29:51.799,1
118,2480,-0.6,0.69,0.66,19.4,2022-03-04 10:29:51.899,1
119,2498,0.64,0.37,0.48,19.4,2022-03-04 10:29:51.989,1
120,2518,-1.0,0.39,0.42,19.4,2022-03-04 10:29:52.088,1
121,2544,-0.76,0.42,0.61,22.3,2022-03-04 10:29:52.197,1
122,2564,-0.79,0.37,-0.85,22.3,2022-03-04 10:29:52.296,1
123,2584,-1.3,0.64,-1.61,22.3,2022-03-04 10:29:52.397,1
124,2604,-1.1,0.72,-1.12,22.3,2022-03-04 10:29:52.495,1
125,2626,0.93,0.64,1.53,22.3,2022-03-04 10:29:52.595,1
126,2646,-0.62,0.49,0.9,22.3,2022-03-04 10:29:52.694,1
127,2666,-0.96,0.29,-1.25,22.3,2022-03-04 10:29:52.792,1
128,2686,-0.7,0.57,1.06,22.3,2022-03-04 10:29:52.894,1
129,2706,-0.89,0.62,-1.29,22.3,2022-03-04 10:29:52.992,1
130,2726,-0.62,0.79,-1.34,22.3,2022-03-04 10:29:53.092,1
131,2752,0.67,-0.6,-0.73,25.6,2022-03-04 10:29:53.199,1
132,2770,0.67,-0.87,-0.46,25.6,2022-03-04 10:29:53.289,1
133,2792,-0.77,-1.34,-1.23,25.6,2022-03-04 10:29:53.398,1
134,2812,-0.68,-0.85,-0.6,25.6,2022-03-04 10:29:53.497,1
135,2834,0.83,-0.82,0.68,25.6,2022-03-04 10:29:53.596,1
136,2854,-0.62,-0.69,0.36,25.6,2022-03-04 10:29:53.696,1
137,2874,-0.46,-0.82,-0.56,25.6,2022-03-04 10:29:53.795,1
138,2894,-0.6,-1.11,-0.76,25.6,2022-03-04 10:29:53.896,1
139,2914,0.64,-0.92,-0.53,25.6,2022-03-04 10:29:53.994,1
140,2934,-0.51,-0.82,-0.63,25.6,2022-03-04 10:29:54.094,1
141,2958,0.39,-0.91,-0.71,26.3,2022-03-04 10:29:54.192,1
142,2978,0.44,-0.82,1.21,26.3,2022-03-04 10:29:54.292,1
143,2998,0.86,-0.48,0.78,26.3,2022-03-04 10:29:54.391,1
144,3018,0.66,0.62,-0.9,26.3,2022-03-04 10:29:54.492,1
145,3042,-0.45,1.65,-1.05,26.3,2022-03-04 10:29:54.599,1
146,3062,-0.78,1.55,-1.06,26.3,2022-03-04 10:29:54.698,1
147,3082,0.72,-1.06,0.57,26.3,2022-03-04 10:29:54.797,1
148,3102,0.52,1.61,1.26,26.3,2022-03-04 10:29:54.897,1
149,3122,-0.44,0.94,-1.66,26.3,2022-03-04 10:29:54.996,1
150,3140,0.69,0.97,-0.96,26.3,2022-03-04 10:29:55.095,1
151,3166,0.65,1.11,0.92,28.8,2022-03-04 10:29:55.195,1
152,3186,1.04,0.76,0.76,28.8,2022-03-04 10:29:55.294,1
153,3206,-0.79,0.96,-1.87,28.8,2022-03-04 10:29:55.393,1
154,3226,-0.75,1.06,-1.01,28.8,2022-03-04 10:29:55.493,1
155,3248,0.82,0.82,2.05,28.8,2022-03-04 10:29:55.594,1
156,3268,0.58,0.92,-1.26,28.8,2022-03-04 10:29:55.693,1
157,3288,-0.53,1.06,-1.38,28.8,2022-03-04 10:29:55.790,1
158,3310,1.17,0.95,-1.49,28.8,2022-03-04 10:29:55.899,1
159,3330,-1.12,0.86,1.26,28.8,2022-03-04 10:29:55.998,1
160,3350,0.54,1.17,-2.22,28.8,2022-03-04 10:29:56.098,1
161,3374,-0.88,0.85,1.33,33.1,2022-03-04 10:29:56.197,1
162,3394,0.83,0.58,0.82,33.1,2022-03-04 10:29:56.298,1
163,3414,-1.23,1.05,1.66,33.1,2022-03-04 10:29:56.397,1
164,3434,-1.67,0.85,-2.11,33.1,2022-03-04 10:29:56.495,1
165,3456,1.4,-0.62,-1.55,33.1,2022-03-04 10:29:56.594,1
166,3476,-0.56,0.91,-1.19,33.1,2022-03-04 10:29:56.694,1
167,3496,-1.73,0.73,-1.2,33.1,2022-03-04 10:29:56.793,1
168,3516,-1.69,0.75,-1.05,33.1,2022-03-04 10:29:56.892,1
169,3536,-0.53,0.73,-1.42,33.1,2022-03-04 10:29:56.993,1
170,3556,-0.68,0.52,0.56,33.1,2022-03-04 10:29:57.092,1
171,3580,-1.56,0.57,0.8,36.4,2022-03-04 10:29:57.191,1
172,3602,1.53,0.57,-0.93,36.4,2022-03-04 10:29:57.299,1
173,3622,0.6,0.38,-0.39,36.4,2022-03-04 10:29:57.398,1
174,3642,-1.15,-0.34,-0.62,36.4,2022-03-04 10:29:57.498,1
175,3664,0.61,-0.28,-0.72,36.4,2022-03-04 10:29:57.597,1
176,3684,-0.54,-0.26,0.62,36.4,2022-03-04 10:29:57.696,1
177,3704,0.44,-0.15,-0.45,36.4,2022-03-04 10:29:57.795,1
178,3724,-0.44,0.31,0.46,36.4,2022-03-04 10:29:57.897,1
179,3744,0.67,0.51,1.03,36.4,2022-03-04 10:29:57.994,1
180,3764,-1.02,0.41,-0.68,36.4,2022-03-04 10:29:58.099,1
181,3788,-0.6,0.18,0.84,38.9,2022-03-04 10:29:58.194,1
182,3808,0.94,-0.35,-1.2,38.9,2022-03-04 10:29:58.291,1
183,3828,1.0,0.26,-0.43,38.9,2022-03-04 10:29:58.391,1
184,3848,-0.99,-0.51,-0.88,38.9,2022-03-04 10:29:58.492,1
185,3872,-0.87,-0.53,-0.79,38.9,2022-03-04 10:29:58.599,1
186,3892,0.84,0.17,0.78,38.9,2022-03-04 10:29:58.698,1
187,3912,-0.81,-0.26,0.57,38.9,2022-03-04 10:29:58.799,1
188,3932,1.5,-0.53,-0.83,38.9,2022-03-04 10:29:58.898,1
189,3952,-0.75,-0.54,-0.68,38.9,2022-03-04 10:29:58.996,1
190,3972,-0.55,-0.56,0.61,38.9,2022-03-04 10:29:59.096,1
191,3996,-0.73,-0.42,0.62,41.4,2022-03-04 10:29:59.195,1
192,4016,-0.77,-0.45,-0.75,41.4,2022-03-04 10:29:59.294,1
193,4036,-0.75,-0.34,-0.81,41.4,2022-03-04 10:29:59.393,1
194,4056,0.73,-0.37,-0.82,41.4,2022-03-04 10:29:59.493,1
195,4078,-0.87,-0.48,-0.71,41.4,2022-03-04 10:29:59.592,1
196,4098,-0.84,-0.41,-0.86,41.4,2022-03-04 10:29:59.691,1
197,4118,0.77,-0.56,0.63,41.4,2022-03-04 10:29:59.791,1
198,4140,0.6,-0.27,-0.79,41.4,2022-03-04 10:29:59.899,1
199,4160,-1.11,0.23,-0.71,41.4,2022-03-04 10:29:59.999,1
200,4180,1.54,-0.53,-0.88,41.4,2022-03-04 10:30:00.099,1
201,4200,0.62,-1.06,-0.87,43.6,2022-03-04 10:30:00.197,1
202,4224,-0.61,-1.26,-0.87,43.6,2022-03-04 10:30:00.297,1
203,4244,1.02,-1.15,-0.66,43.6,2022-03-04 10:30:00.396,1
204,4264,0.46,-0.91,-1.04,43.6,2022-03-04 10:30:00.495,1
205,4286,-0.39,-1.02,-0.64,43.6,2022-03-04 10:30:00.594,1
206,4306,-0.42,-0.99,1.34,43.6,2022-03-04 10:30:00.694,1
207,4326,0.99,-1.1,1.1,43.6,2022-03-04 10:30:00.793,1
208,4346,1.11,-1.04,1.37,43.6,2022-03-04 10:30:00.892,1
209,4366,0.94,-0.93,-1.81,43.6,2022-03-04 10:30:00.991,1
210,4386,-0.89,0.71,-1.39,43.6,2022-03-04 10:30:01.091,1
211,4406,0.59,-0.76,-1.75,43.6,2022-03-04 10:30:01.192,1
212,4432,-0.84,-0.95,-0.72,44.3,2022-03-04 10:30:01.299,1
213,4452,1.32,-0.75,1.29,44.3,2022-03-04 10:30:01.399,1
214,4472,0.63,-0.82,0.83,44.3,2022-03-04 10:30:01.498,1
215,4494,0.61,-0.59,0.92,44.3,2022-03-04 10:30:01.597,1
216,4514,-0.63,-0.34,-0.86,44.3,2022-03-04 10:30:01.697,1
217,4534,0.58,-0.3,-1.15,44.3,2022-03-04 10:30:01.796,1
218,4554,0.74,-0.57,-1.86,44.3,2022-03-04 10:30:01.895,1
219,4574,-1.75,-0.38,-1.86,44.3,2022-03-04 10:30:01.995,1
220,4594,-0.96,-1.41,1.79,44.3,2022-03-04 10:30:02.093,1
221,4618,1.88,0.94,-1.74,46.1,2022-03-04 10:30:02.192,1
222,4638,1.0,-0.56,0.81,46.1,2022-03-04 10:30:02.292,1
223,4658,0.33,-0.32,-0.41,46.1,2022-03-04 10:30:02.391,1
224,4678,0.39,-0.39,-0.53,46.1,2022-03-04 10:30:02.490,1
225,4702,0.91,-0.42,-0.7,46.1,2022-03-04 10:30:02.599,1
226,4722,0.37,0.36,-0.72,46.1,2022-03-04 10:30:02.699,1
227,4742,-0.4,-0.36,-0.84,46.1,2022-03-04 10:30:02.798,1
228,4762,0.56,-0.25,1.01,46.1,2022-03-04 10:30:02.897,1
229,4782,1.02,-0.52,0.85,46.1,2022-03-04 10:30:02.997,1
230,4802,0.75,-0.41,-1.16,46.1,2022-03-04 10:30:03.096,1
231,4826,0.46,-0.53,-0.98,48.2,2022-03-04 10:30:03.197,1
232,4846,0.65,-0.39,0.95,48.2,2022-03-04 10:30:03.294,1
233,4866,1.04,-0.4,-0.93,48.2,2022-03-04 10:30:03.394,1
234,4886,0.58,-0.31,-1.44,48.2,2022-03-04 10:30:03.494,10
235,4908,0.62,0.18,1.04,48.2,2022-03-04 10:30:03.593,10
236,4928,0.5,-0.67,-0.94,48.2,2022-03-04 10:30:03.691,10
237,4948,0.74,-0.79,-0.92,48.2,2022-03-04 10:30:03.793,10
238,4968,0.73,-0.92,-0.5,48.2,2022-03-04 10:30:03.890,10
239,4988,0.51,-0.9,-0.66,48.2,2022-03-04 10:30:03.990,10
240,5010,1.02,-0.87,-0.53,48.2,2022-03-04 10:30:04.099,10
241,5028,0.76,-1.05,0.7,48.2,2022-03-04 10:30:04.191,10
242,5054,-0.57,-1.1,-0.83,49.3,2022-03-04 10:30:04.297,10
243,5074,0.52,-0.87,-0.79,49.3,2022-03-04 10:30:04.396,10
244,5094,-1.13,-1.47,-1.66,49.3,2022-03-04 10:30:04.498,10
245,5116,-0.56,-0.99,0.89,49.3,2022-03-04 10:30:04.595,10
246,5136,-0.87,-0.81,-0.78,49.3,2022-03-04 10:30:04.694,10
247,5156,-0.28,-0.76,-0.81,49.3,2022-03-04 10:30:04.793,10
248,5176,0.73,-1.11,0.61,49.3,2022-03-04 10:30:04.892,10
249,5196,-0.51,-0.92,-1.23,49.3,2022-03-04 10:30:04.992,10
250,5216,-0.77,-0.91,1.0,49.3,2022-03-04 10:30:05.093,10
251,5240,0.44,-0.77,-0.92,49.3,2022-03-04 10:30:05.190,10
252,5260,0.76,-0.93,1.16,49.0,2022-03-04 10:30:05.290,10
253,5280,-0.75,-0.81,-1.09,49.0,2022-03-04 10:30:05.389,10
254,5300,-0.31,-0.82,-0.84,49.0,2022-03-04 10:30:05.488,10
255,5324,0.65,-0.86,-0.76,49.0,2022-03-04 10:30:05.598,10
256,5344,0.49,-0.77,-0.7,49.0,2022-03-04 10:30:05.696,10
257,5364,-0.95,-0.86,0.89,49.0,2022-03-04 10:30:05.797,10
258,5384,0.54,-0.9,0.46,49.0,2022-03-04 10:30:05.895,10
259,5404,0.68,-0.86,-1.04,49.0,2022-03-04 10:30:05.994,10
260,5424,-0.39,-0.76,0.89,49.0,2022-03-04 10:30:06.094,10
261,5448,0.64,-0.82,0.69,49.0,2022-03-04 10:30:06.193,10
262,5468,-0.7,-0.94,-0.87,48.6,2022-03-04 10:30:06.294,10
263,5488,-0.47,-0.95,0.87,48.6,2022-03-04 10:30:06.391,10
264,5508,-0.35,-1.03,-0.81,48.6,2022-03-04 10:30:06.490,10
265,5530,0.4,-1.12,1.05,48.6,2022-03-04 10:30:06.590,10
266,5550,0.39,-1.04,1.23,48.6,2022-03-04 10:30:06.689,10
267,5570,0.64,-0.91,-0.54,48.6,2022-03-04 10:30:06.788,10
268,5590,0.52,-0.86,0.59,48.6,2022-03-04 10:30:06.887,10
269,5610,0.48,-1.0,-0.78,48.6,2022-03-04 10:30:06.988,10
270,5632,0.68,-1.02,-1.26,48.6,2022-03-04 10:30:07.099,10
271,5656,0.96,-1.01,-0.59,48.6,2022-03-04 10:30:07.195,4
272,5676,0.43,-1.29,0.74,48.2,2022-03-04 10:30:07.295,4
273,5696,0.3,-1.46,-0.34,48.2,2022-03-04 10:30:07.394,4
274,5716,1.01,-1.51,-0.8,48.2,2022-03-04 10:30:07.494,4
275,5738,0.83,-1.32,-0.6,48.2,2022-03-04 10:30:07.595,4
276,5758,-0.92,-1.64,-0.43,48.2,2022-03-04 10:30:07.691,4
277,5778,0.97,-1.43,0.75,48.2,2022-03-04 10:30:07.791,4
278,5798,-0.85,-1.57,-0.65,48.2,2022-03-04 10:30:07.890,4
279,5818,0.59,-1.72,-0.96,48.2,2022-03-04 10:30:07.990,4
280,5838,0.45,-1.88,-0.77,48.2,2022-03-04 10:30:08.089,4
281,5860,0.43,-1.84,-0.61,48.2,2022-03-04 10:30:08.194,4
282,5884,0.51,-1.95,-0.94,45.7,2022-03-04 10:30:08.298,4
283,5902,0.55,-1.98,0.73,45.7,2022-03-04 10:30:08.386,4
284,5924,0.95,-2.01,1.18,45.7,2022-03-04 10:30:08.496,4
285,5946,0.6,-1.95,-0.64,45.7,2022-03-04 10:30:08.595,4
286,5966,1.2,-1.71,-0.78,45.7,2022-03-04 10:30:08.694,4
287,5986,0.89,-1.86,-0.55,45.7,2022-03-04 10:30:08.794,4
288,6006,1.14,-1.77,0.59,45.7,2022-03-04 10:30:08.893,4
289,6026,0.4,-1.68,-0.76,45.7,2022-03-04 10:30:08.993,4
290,6046,0.77,-1.56,-0.77,45.7,2022-03-04 10:30:09.094,4
291,6070,0.68,-1.65,0.59,45.7,2022-03-04 10:30:09.191,4
292,6090,0.61,-1.73,0.53,41.4,2022-03-04 10:30:09.290,4
293,6112,0.69,-1.55,-1.08,41.4,2022-03-04 10:30:09.399,4
294,6132,0.64,-1.41,-0.52,41.4,2022-03-04 10:30:09.499,4
295,6152,1.01,-1.77,-0.76,41.4,2022-03-04 10:30:09.594,4
296,6174,0.47,-1.54,0.81,41.4,2022-03-04 10:30:09.698,4
297,6194,0.74,-1.36,-0.41,41.4,2022-03-04 10:30:09.797,4
298,6214,0.62,-1.3,-0.69,41.4,2022-03-04 10:30:09.897,4
299,6234,0.68,-1.38,0.82,41.4,2022-03-04 10:30:09.997,4
300,6254,1.08,-1.32,-0.92,41.4,2022-03-04 10:30:10.099,4
301,6272,-0.79,-1.57,-0.71,41.4,2022-03-04 10:30:10.190,4
302,6298,0.6,-1.4,0.48,41.4,2022-03-04 10:30:10.292,4
303,6318,0.92,-1.39,-1.16,37.8,2022-03-04 10:30:10.392,4
304,6338,1.05,-1.45,-0.57,37.8,2022-03-04 10:30:10.491,4
305,6360,0.97,-1.24,0.58,37.8,2022-03-04 10:30:10.591,4
306,6380,0.7,-1.09,-0.46,37.8,2022-03-04 10:30:10.691,4
307,6400,0.6,-1.11,-0.65,37.8,2022-03-04 10:30:10.788,4
308,6420,0.72,-1.12,-0.74,37.8,2022-03-04 10:30:10.888,4
309,6442,0.76,-1.2,-0.66,37.8,2022-03-04 10:30:10.999,4
310,6462,0.94,-1.04,0.68,37.8,2022-03-04 10:30:11.097,4
311,6486,1.06,-1.08,-0.73,37.8,2022-03-04 10:30:11.196,4
312,6506,1.02,-1.07,-0.59,34.2,2022-03-04 10:30:11.296,4
313,6526,1.1,-0.91,-0.67,34.2,2022-03-04 10:30:11.396,4
314,6546,1.25,-0.99,0.32,34.2,2022-03-04 10:30:11.497,4
315,6568,0.91,-0.87,0.51,34.2,2022-03-04 10:30:11.593,4
316,6588,1.0,-0.83,-0.87,34.2,2022-03-04 10:30:11.693,4
317,6608,1.05,-0.8,-0.58,34.2,2022-03-04 10:30:11.791,4
318,6628,1.58,-0.94,1.26,34.2,2022-03-04 10:30:11.891,4
319,6648,1.25,-1.31,-1.16,34.2,2022-03-04 10:30:11.990,4
320,6670,1.29,-1.29,-0.45,34.2,2022-03-04 10:30:12.099,4
321,6690,1.26,-1.48,-1.1,34.2,2022-03-04 10:30:12.199,4
322,6714,1.11,-1.4,0.93,34.2,2022-03-04 10:30:12.298,7
323,6734,0.85,-1.29,0.47,30.2,2022-03-04 10:30:12.397,7
324,6754,1.07,-1.25,-0.45,30.2,2022-03-04 10:30:12.497,7
325,6776,0.85,-0.99,-0.52,30.2,2022-03-04 10:30:12.597,7
326,6796,0.62,-0.81,-0.37,30.2,2022-03-04 10:30:12.697,7
327,6816,0.75,-0.81,0.65,30.2,2022-03-04 10:30:12.795,7
328,6836,0.75,-0.74,-0.57,30.2,2022-03-04 10:30:12.893,7
329,6856,0.69,-0.8,-0.53,30.2,2022-03-04 10:30:12.995,7
330,6876,0.64,-0.53,-0.38,30.2,2022-03-04 10:30:13.092,7
331,6900,0.67,-0.31,-0.66,30.2,2022-03-04 10:30:13.192,7
332,6920,-0.33,0.35,-0.94,25.6,2022-03-04 10:30:13.290,7
333,6940,-0.88,0.36,-1.13,25.6,2022-03-04 10:30:13.391,7
334,6962,-0.66,0.4,-0.23,25.6,2022-03-04 10:30:13.499,7
335,6982,-0.8,0.39,-0.83,25.6,2022-03-04 10:30:13.588,7
336,7004,-1.5,0.47,-0.73,25.6,2022-03-04 10:30:13.697,7
337,7024,-1.45,0.27,-1.0,25.6,2022-03-04 10:30:13.797,7
338,7044,-1.47,0.32,0.32,25.6,2022-03-04 10:30:13.896,7
339,7064,-1.55,0.34,-0.61,25.6,2022-03-04 10:30:13.998,7
340,7084,-1.87,0.37,-0.6,25.6,2022-03-04 10:30:14.095,7
341,7108,-1.96,0.41,-0.78,25.6,2022-03-04 10:30:14.195,7
342,7128,-2.82,0.25,0.63,24.1,2022-03-04 10:30:14.295,7
343,7148,-2.41,-0.19,0.56,24.1,2022-03-04 10:30:14.394,7
344,7168,-3.23,-0.3,-0.83,24.1,2022-03-04 10:30:14.492,7
345,7190,-2.74,0.15,-0.9,24.1,2022-03-04 10:30:14.591,7
346,7210,-2.98,-0.18,-0.92,24.1,2022-03-04 10:30:14.690,7
347,7232,-3.34,-0.29,-0.76,24.1,2022-03-04 10:30:14.799,7
348,7252,-3.56,-0.41,0.57,24.1,2022-03-04 10:30:14.898,7
349,7272,-2.95,-0.33,0.51,24.1,2022-03-04 10:30:14.998,7
350,7290,-3.13,-0.41,0.52,24.1,2022-03-04 10:30:15.087,7
351,7316,-3.37,-0.36,0.3,24.1,2022-03-04 10:30:15.197,7
352,7336,-3.66,-0.59,0.38,23.4,2022-03-04 10:30:15.296,7
353,7356,-3.64,-0.61,0.68,23.4,2022-03-04 10:30:15.396,7
354,7376,-3.74,-0.78,0.45,23.4,2022-03-04 10:30:15.495,7
355,7398,-3.66,-0.66,-0.22,23.4,2022-03-04 10:30:15.595,7
356,7418,-3.71,-0.85,0.5,23.4,2022-03-04 10:30:15.694,7
357,7438,-3.88,-0.85,0.67,23.4,2022-03-04 10:30:15.793,7
358,7458,-3.85,-0.96,-0.4,23.4,2022-03-04 10:30:15.893,7
359,7478,-3.75,-0.94,-0.44,23.4,2022-03-04 10:30:15.991,7
360,7498,-3.59,-1.12,-0.78,23.4,2022-03-04 10:30:16.090,7
361,7520,-3.92,-1.08,0.77,23.4,2022-03-04 10:30:16.199,7
362,7544,-3.61,-1.04,0.51,21.2,2022-03-04 10:30:16.298,7
363,7564,-3.4,-1.2,-0.7,21.2,2022-03-04 10:30:16.397,7
364,7584,-3.49,-1.11,0.34,21.2,2022-03-04 10:30:16.497,7
365,7606,-3.37,-1.36,-0.49,21.2,2022-03-04 10:30:16.596,7
366,7626,-3.39,-1.37,0.79,21.2,2022-03-04 10:30:16.695,7
367,7646,-3.86,-1.35,0.45,21.2,2022-03-04 10:30:16.794,7
368,7666,-2.92,-1.43,-0.52,21.2,2022-03-04 10:30:16.895,7
369,7686,-3.43,-1.63,0.9,21.2,2022-03-04 10:30:16.993,7
370,7706,-3.79,-1.72,0.64,21.2,2022-03-04 10:30:17.093,7
371,7730,-4.07,-2.01,-0.86,21.2,2022-03-04 10:30:17.192,7
372,7750,-4.26,-2.2,-0.51,20.2,2022-03-04 10:30:17.293,7
373,7770,-3.97,-2.37,-0.71,20.2,2022-03-04 10:30:17.396,7
374,7792,-3.79,-2.3,0.67,20.2,2022-03-04 10:30:17.499,7
375,7814,-4.02,-2.15,-0.52,20.2,2022-03-04 10:30:17.599,7
376,7834,-3.91,-2.23,-0.52,20.2,2022-03-04 10:30:17.698,7
377,7854,-3.1,-2.3,0.67,20.2,2022-03-04 10:30:17.797,7
378,7874,-3.09,-2.55,0.76,20.2,2022-03-04 10:30:17.896,7
379,7894,-3.76,-2.4,-0.64,20.2,2022-03-04 10:30:17.996,7
380,7914,-3.28,-2.24,0.54,20.2,2022-03-04 10:30:18.097,7
381,7934,-3.85,-2.47,-0.75,20.2,2022-03-04 10:30:18.194,7
382,7958,-3.34,-2.62,0.68,20.2,2022-03-04 10:30:18.294,7
383,7978,-3.51,-2.47,1.14,16.2,2022-03-04 10:30:18.392,7
384,7998,-3.81,-2.57,1.01,16.2,2022-03-04 10:30:18.493,7
385,8020,-3.34,-2.21,-1.55,16.2,2022-03-04 10:30:18.591,7
386,8040,-3.25,-2.05,-0.88,16.2,2022-03-04 10:30:18.692,7
387,8062,-4.12,-2.1,-0.82,16.2,2022-03-04 10:30:18.799,7
388,8082,-4.83,-2.02,0.51,16.2,2022-03-04 10:30:18.899,7
389,8102,-3.74,-1.9,-0.88,16.2,2022-03-04 10:30:18.998,7
390,8122,-3.35,-1.82,-0.87,16.2,2022-03-04 10:30:19.099,7
391,8146,-3.45,-1.49,-0.74,16.9,2022-03-04 10:30:19.198,7
392,8166,-3.6,-1.58,0.73,16.9,2022-03-04 10:30:19.296,7
393,8186,-3.71,-1.81,0.9,16.9,2022-03-04 10:30:19.395,7
394,8206,-3.42,-1.55,-1.0,16.9,2022-03-04 10:30:19.494,7
395,8228,-3.04,-1.43,2.01,16.9,2022-03-04 10:30:19.594,7
396,8248,-3.05,-1.25,1.42,16.9,2022-03-04 10:30:19.693,7
397,8268,-1.88,-1.29,-1.03,16.9,2022-03-04 10:30:19.793,7
398,8288,-1.36,-1.19,1.17,16.9,2022-03-04 10:30:19.892,7
399,8308,-1.71,-1.19,1.48,16.9,2022-03-04 10:30:19.992,7
400,8328,-1.73,-1.07,-0.91,16.9,2022-03-04 10:30:20.091,7
401,8354,-0.92,-1.0,0.94,16.9,2022-03-04 10:30:20.199,7
402,8374,-0.86,-0.96,0.65,16.9,2022-03-04 10:30:20.298,7
403,8394,-1.24,-0.79,-0.69,16.9,2022-03-04 10:30:20.398,7
404,8414,-0.65,-0.92,-0.89,16.9,2022-03-04 10:30:20.499,7
405,8436,-1.06,-0.95,-0.63,16.9,2022-03-04 10:30:20.596,7
406,8456,-1.03,-0.8,-0.78,16.9,2022-03-04 10:30:20.696,7
407,8476,-1.08,-0.66,-0.62,16.9,2022-03-04 10:30:20.795,7
408,8496,-1.04,-0.76,0.28,16.9,2022-03-04 10:30:20.894,7
409,8516,-0.66,-0.66,-0.5,16.9,2022-03-04 10:30:20.994,7
410,8536,-0.97,-0.57,-0.38,16.9,2022-03-04 10:30:21.093,1
411,8556,-0.83,-0.55,0.77,16.9,2022-03-04 10:30:21.192,1
412,8580,0.54,-0.56,0.23,17.6,2022-03-04 10:30:21.293,1
413,8600,0.49,-0.55,-0.7,17.6,2022-03-04 10:30:21.391,1
414,8620,0.86,-0.29,-0.51,17.6,2022-03-04 10:30:21.490,1
415,8644,0.87,-0.42,-0.73,17.6,2022-03-04 10:30:21.599,1
416,8664,0.97,-0.4,-0.81,17.6,2022-03-04 10:30:21.698,1
417,8684,0.99,-0.37,0.55,17.6,2022-03-04 10:30:21.798,1
418,8704,1.01,-0.59,-0.71,17.6,2022-03-04 10:30:21.896,1
419,8724,0.88,-0.45,-0.82,17.6,2022-03-04 10:30:21.996,1
420,8744,1.04,-0.45,-0.78,17.6,2022-03-04 10:30:22.095,1
421,8768,1.0,-0.34,0.71,20.9,2022-03-04 10:30:22.194,1
422,8788,1.01,-0.44,0.63,20.9,2022-03-04 10:30:22.293,1
423,8808,0.73,-0.63,0.53,20.9,2022-03-04 10:30:22.393,1
424,8828,1.08,-0.6,-0.8,20.9,2022-03-04 10:30:22.493,1
425,8850,1.0,-0.67,-0.91,20.9,2022-03-04 10:30:22.592,1
426,8870,1.28,-0.57,0.87,20.9,2022-03-04 10:30:22.692,1
427,8890,1.18,-0.64,-1.12,20.9,2022-03-04 10:30:22.790,1
428,8912,1.26,-0.54,-1.42,20.9,2022-03-04 10:30:22.899,1
429,8932,1.51,-0.48,-0.72,20.9,2022-03-04 10:30:22.998,1
430,8952,1.62,-0.28,-0.71,20.9,2022-03-04 10:30:23.098,1
431,8976,1.67,-0.62,0.74,24.1,2022-03-04 10:30:23.198,1
432,8996,1.77,-0.61,-0.87,24.1,2022-03-04 10:30:23.296,1
433,9016,1.49,-0.64,1.22,24.1,2022-03-04 10:30:23.396,1
434,9036,1.59,-0.62,-0.82,24.1,2022-03-04 10:30:23.494,1
435,9058,1.65,-0.68,1.01,24.1,2022-03-04 10:30:23.594,1
436,9078,1.5,-0.62,-0.91,24.1,2022-03-04 10:30:23.693,1
437,9098,1.56,-0.46,1.07,24.1,2022-03-04 10:30:23.793,1
438,9118,1.2,-0.43,1.72,24.1,2022-03-04 10:30:23.892,1
439,9138,1.45,-0.29,-0.68,24.1,2022-03-04 10:30:23.991,1
440,9158,1.18,-0.38,-0.65,24.1,2022-03-04 10:30:24.091,1
441,9184,0.91,-0.47,-0.73,27.4,2022-03-04 10:30:24.199,1
442,9204,1.49,-0.4,0.75,27.4,2022-03-04 10:30:24.298,1
443,9224,1.0,-0.4,0.81,27.4,2022-03-04 10:30:24.398,1
444,9244,0.78,-0.51,-0.89,27.4,2022-03-04 10:30:24.497,1
445,9266,0.73,0.33,-0.7,27.4,2022-03-04 10:30:24.596,1
446,9286,0.65,-0.3,-0.83,27.4,2022-03-04 10:30:24.695,1
447,9306,1.22,-0.36,0.89,27.4,2022-03-04 10:30:24.794,1
448,9326,0.78,-0.45,-1.1,27.4,2022-03-04 10:30:24.894,1
449,9346,0.55,-0.57,0.87,27.4,2022-03-04 10:30:24.993,1
450,9366,0.35,-0.48,-0.77,27.4,2022-03-04 10:30:25.093,1
451,9390,0.45,-0.56,1.05,30.2,2022-03-04 10:30:25.192,1
452,9410,1.09,-0.31,0.93,30.2,2022-03-04 10:30:25.291,1
453,9430,1.0,-0.65,-0.96,30.2,2022-03-04 10:30:25.391,1
454,9450,1.13,-0.37,-1.05,30.2,2022-03-04 10:30:25.490,1
455,9474,0.86,-0.37,-0.74,30.2,2022-03-04 10:30:25.599,1
456,9494,1.38,-0.49,0.66,30.2,2022-03-04 10:30:25.699,1
457,9514,1.17,-0.22,-1.59,30.2,2022-03-04 10:30:25.797,1
458,9534,0.63,-0.46,1.16,30.2,2022-03-04 10:30:25.896,1
459,9554,0.79,-0.31,0.92,30.2,2022-03-04 10:30:25.996,1
460,9574,1.05,-0.35,-1.27,30.2,2022-03-04 10:30:26.095,1
461,9594,0.8,-0.36,-1.13,30.2,2022-03-04 10:30:26.196,1
462,9618,1.1,-0.5,1.53,33.1,2022-03-04 10:30:26.294,1
463,9638,1.07,-0.45,-1.4,33.1,2022-03-04 10:30:26.393,1
464,9658,0.78,-0.37,-1.51,33.1,2022-03-04 10:30:26.492,1
465,9680,1.06,-0.49,-1.06,33.1,2022-03-04 10:30:26.591,1
466,9700,0.7,-0.63,-0.32,33.1,2022-03-04 10:30:26.690,1
467,9720,0.87,-0.85,0.65,33.1,2022-03-04 10:30:26.790,1
468,9742,0.73,-0.46,0.97,33.1,2022-03-04 10:30:26.899,1
469,9762,0.88,-1.0,0.46,33.1,2022-03-04 10:30:26.999,1
470,9780,0.57,-1.5,-0.72,33.1,2022-03-04 10:30:27.092,1
471,9806,0.86,-1.42,-0.85,35.3,2022-03-04 10:30:27.197,1
472,9826,0.7,-1.53,-0.7,35.3,2022-03-04 10:30:27.298,1
473,9846,0.8,-1.23,-0.88,35.3,2022-03-04 10:30:27.396,1
474,9866,0.54,-1.76,-1.36,35.3,2022-03-04 10:30:27.495,1
475,9888,0.59,-1.35,0.48,35.3,2022-03-04 10:30:27.594,1
476,9908,0.64,-1.19,0.81,35.3,2022-03-04 10:30:27.693,1
477,9928,0.8,-1.3,-0.72,35.3,2022-03-04 10:30:27.792,1
478,9948,0.78,-1.34,-0.45,35.3,2022-03-04 10:30:27.893,1
479,9968,0.98,-0.7,1.13,35.3,2022-03-04 10:30:27.991,1
480,9988,0.63,-0.64,-0.71,35.3,2022-03-04 10:30:28.092,1
481,10010,0.97,-1.1,-0.97,35.6,2022-03-04 10:30:28.192,1
482,10034,1.15,-0.82,0.85,35.6,2022-03-04 10:30:28.299,1
483,10054,0.76,-0.69,0.92,35.6,2022-03-04 10:30:28.398,1
484,10074,0.83,-0.52,-1.1,35.6,2022-03-04 10:30:28.498,1
485,10096,1.3,-0.79,0.75,35.6,2022-03-04 10:30:28.596,1
486,10116,0.84,-0.59,-1.51,35.6,2022-03-04 10:30:28.696,1
487,10136,0.94,-0.69,1.07,35.6,2022-03-04 10:30:28.797,1
488,10156,0.62,-0.61,-1.14,35.6,2022-03-04 10:30:28.895,1
489,10176,0.97,-0.33,1.33,35.6,2022-03-04 10:30:28.994,1
490,10196,0.82,-0.37,0.88,35.6,2022-03-04 10:30:29.093,1
491,10218,1.07,-0.4,-1.7,37.8,2022-03-04 10:30:29.199,1
492,10240,1.06,0.45,-1.2,37.8,2022-03-04 10:30:29.291,1
493,10260,1.22,-0.3,-1.11,37.8,2022-03-04 10:30:29.391,1
494,10280,0.79,-0.44,-1.16,37.8,2022-03-04 10:30:29.490,1
495,10304,-1.25,-0.83,-0.78,37.8,2022-03-04 10:30:29.599,1
496,10324,-1.35,-1.01,-0.79,37.8,2022-03-04 10:30:29.698,1
497,10344,0.43,-0.8,0.78,37.8,2022-03-04 10:30:29.799,1
498,10364,-0.62,-0.69,-0.71,37.8,2022-03-04 10:30:29.897,1
499,10384,-1.18,-0.83,0.91,37.8,2022-03-04 10:30:29.996,1
500,10404,1.43,-0.67,0.93,37.8,2022-03-04 10:30:30.096,1
501,10428,-0.34,-0.74,-0.61,39.6,2022-03-04 10:30:30.195,1
502,10448,-0.99,-0.7,-0.99,39.6,2022-03-04 10:30:30.294,1
503,10468,-1.25,-0.78,-1.34,39.6,2022-03-04 10:30:30.394,1
504,10488,1.21,-0.8,-1.18,39.6,2022-03-04 10:30:30.493,1
505,10510,-0.37,-0.67,-0.63,39.6,2022-03-04 10:30:30.595,1
506,10530,1.18,-0.78,0.45,39.6,2022-03-04 10:30:30.691,1
507,10550,-0.49,-0.7,-0.73,39.6,2022-03-04 10:30:30.791,1
508,10570,0.69,-0.81,-0.89,39.6,2022-03-04 10:30:30.890,1
509,10590,0.5,-0.77,-0.41,39.6,2022-03-04 10:30:30.989,1
510,10612,0.87,-0.7,-0.89,39.6,2022-03-04 10:30:31.098,1
511,10636,1.02,-0.77,-0.95,41.0,2022-03-04 10:30:31.197,1
512,10656,0.9,-0.81,0.78,41.0,2022-03-04 10:30:31.299,1
513,10676,0.89,-0.78,-0.84,41.0,2022-03-04 10:30:31.396,1
514,10696,-0.91,-0.88,1.12,41.0,2022-03-04 10:30:31.495,1
515,10718,0.69,-0.86,1.16,41.0,2022-03-04 10:30:31.595,1
516,10738,-0.92,-0.79,-0.59,41.0,2022-03-04 10:30:31.694,1
517,10758,0.56,-0.71,1.06,41.0,2022-03-04 10:30:31.793,1
518,10778,1.5,-0.89,0.86,41.0,2022-03-04 10:30:31.893,1
519,10798,0.75,-0.7,-1.34,41.0,2022-03-04 10:30:31.992,1
520,10818,0.39,-0.77,-1.11,41.0,2022-03-04 10:30:32.091,1
521,10842,0.76,-0.72,0.43,41.8,2022-03-04 10:30:32.190,1
522,10864,1.14,-0.44,0.86,41.8,2022-03-04 10:30:32.299,1
523,10884,0.53,-0.53,-0.91,41.8,2022-03-04 10:30:32.398,1
524,10902,0.6,-0.63,0.91,41.8,2022-03-04 10:30:32.489,1
525,10924,0.87,-0.71,-0.99,41.8,2022-03-04 10:30:32.587,1
526,10946,0.73,0.38,1.43,41.8,2022-03-04 10:30:32.698,1
527,10966,0.85,-0.68,-1.14,41.8,2022-03-04 10:30:32.796,10
528,10986,0.6,-0.34,-0.94,41.8,2022-03-04 10:30:32.895,10
529,11006,0.83,-0.55,-0.64,41.8,2022-03-04 10:30:32.995,10
530,11026,0.33,-0.62,-0.88,41.8,2022-03-04 10:30:33.094,10
531,11050,0.91,-0.55,1.0,43.2,2022-03-04 10:30:33.193,10
532,11070,0.97,-0.8,-0.9,43.2,2022-03-04 10:30:33.292,10
533,11090,-0.45,-0.82,-0.63,43.2,2022-03-04 10:30:33.391,10
534,11110,0.81,-0.61,0.98,43.2,2022-03-04 10:30:33.490,10
535,11132,-0.74,-0.6,1.36,43.2,2022-03-04 10:30:33.590,10
536,11152,-0.74,-0.75,-0.96,43.2,2022-03-04 10:30:33.689,10
537,11172,0.51,-0.81,-0.84,43.2,2022-03-04 10:30:33.788,10
538,11194,0.78,-0.66,1.22,43.2,2022-03-04 10:30:33.898,10
539,11214,-0.45,-0.51,-0.98,43.2,2022-03-04 10:30:33.998,10
540,11232,0.98,-0.79,0.57,43.2,2022-03-04 10:30:34.086,10
541,11258,0.79,-0.74,-0.66,43.9,2022-03-04 10:30:34.197,10
542,11278,0.73,-0.79,-0.38,43.9,2022-03-04 10:30:34.295,10
543,11298,0.49,-0.69,-1.02,43.9,2022-03-04 10:30:34.396,10
544,11318,-0.96,-0.81,-0.87,43.9,2022-03-04 10:30:34.492,10
545,11340,-0.49,-0.72,-1.02,43.9,2022-03-04 10:30:34.592,10
546,11360,-0.59,-0.73,1.41,43.9,2022-03-04 10:30:34.691,10
547,11380,0.4,-0.5,-0.98,43.9,2022-03-04 10:30:34.790,10
548,11400,0.84,-0.58,-1.21,43.9,2022-03-04 10:30:34.890,10
549,11422,0.48,-0.49,-0.8,43.9,2022-03-04 10:30:34.999,10
550,11440,0.47,-0.73,-0.54,43.9,2022-03-04 10:30:35.090,10
551,11466,0.9,-0.59,-0.93,44.3,2022-03-04 10:30:35.198,10
552,11486,0.74,-0.59,-0.89,44.3,2022-03-04 10:30:35.297,10
553,11506,0.66,-0.6,0.83,44.3,2022-03-04 10:30:35.397,10
554,11526,0.75,-0.54,-0.97,44.3,2022-03-04 10:30:35.498,10
555,11548,0.53,-0.64,-0.88,44.3,2022-03-04 10:30:35.596,10
556,11568,0.67,-0.9,-0.83,44.3,2022-03-04 10:30:35.696,10
557,11588,0.85,-0.76,-1.07,44.3,2022-03-04 10:30:35.794,10
558,11608,0.8,-0.71,-0.99,44.3,2022-03-04 10:30:35.893,10
559,11628,0.57,-0.95,-1.39,44.3,2022-03-04 10:30:35.992,10
560,11648,0.45,-0.7,-0.8,44.3,2022-03-04 10:30:36.092,10
561,11668,-0.82,-0.78,-1.09,44.3,2022-03-04 10:30:36.190,10
562,11692,-0.82,-0.74,-0.74,44.3,2022-03-04 10:30:36.290,10
563,11714,0.38,-0.91,0.67,44.3,2022-03-04 10:30:36.399,10
564,11734,-0.76,-0.87,0.71,44.3,2022-03-04 10:30:36.498,10
565,11756,-0.45,-0.69,0.65,44.3,2022-03-04 10:30:36.597,10
566,11776,1.11,-0.84,-0.76,44.3,2022-03-04 10:30:36.697,10
567,11796,1.18,-1.04,-0.96,44.3,2022-03-04 10:30:36.796,10
568,11816,1.03,-0.72,-0.75,44.3,2022-03-04 10:30:36.898,10
569,11836,-0.31,-1.05,-1.42,44.3,2022-03-04 10:30:36.996,10
570,11856,-0.59,-0.83,-0.58,44.3,2022-03-04 10:30:37.095,10
571,11880,-0.41,-0.96,-0.5,44.3,2022-03-04 10:30:37.192,4
572,11900,-0.81,-1.03,-0.74,44.3,2022-03-04 10:30:37.292,4
573,11920,0.51,-1.11,-0.8,44.3,2022-03-04 10:30:37.391,4
574,11940,-0.75,-1.19,-0.68,44.3,2022-03-04 10:30:37.491,4
575,11962,1.0,-1.18,-0.72,44.3,2022-03-04 10:30:37.590,4
576,11982,-0.58,-1.17,-0.82,44.3,2022-03-04 10:30:37.689,4
577,12004,0.66,-1.16,-0.7,44.3,2022-03-04 10:30:37.798,4
578,12024,0.51,-1.39,-1.03,44.3,2022-03-04 10:30:37.898,4
579,12044,0.68,-1.35,0.42,44.3,2022-03-04 10:30:37.997,4
580,12064,0.61,-1.39,-0.64,44.3,2022-03-04 10:30:38.098,4
581,12088,0.55,-1.68,-1.23,44.3,2022-03-04 10:30:38.196,4
582,12108,0.58,-1.54,-0.71,42.5,2022-03-04 10:30:38.295,4
583,12128,0.78,-1.44,-0.84,42.5,2022-03-04 10:30:38.395,4
584,12148,0.64,-1.42,-0.88,42.5,2022-03-04 10:30:38.495,4
585,12170,0.34,-1.54,-0.61,42.5,2022-03-04 10:30:38.595,4
586,12190,0.76,-1.91,-0.68,42.5,2022-03-04 10:30:38.692,4
587,12210,0.7,-1.64,0.9,42.5,2022-03-04 10:30:38.791,4
588,12230,0.62,-1.68,-0.59,42.5,2022-03-04 10:30:38.890,4
589,12250,0.7,-1.81,-0.71,42.5,2022-03-04 10:30:38.990,4
590,12270,0.75,-1.99,0.47,42.5,2022-03-04 10:30:39.091,4
591,12296,1.02,-1.93,0.81,42.5,2022-03-04 10:30:39.198,4
592,12316,1.05,-1.92,-1.46,39.2,2022-03-04 10:30:39.297,4
593,12336,0.77,-1.98,-1.62,39.2,2022-03-04 10:30:39.397,4
594,12356,-0.68,-1.84,0.79,39.2,2022-03-04 10:30:39.496,4
595,12378,-1.01,-2.1,-1.03,39.2,2022-03-04 10:30:39.596,4
596,12398,-0.53,-2.01,1.37,39.2,2022-03-04 10:30:39.695,4
597,12418,1.34,-2.28,-1.4,39.2,2022-03-04 10:30:39.798,4
598,12438,1.19,-2.1,-1.42,39.2,2022-03-04 10:30:39.894,4
599,12458,0.89,-1.98,1.07,39.2,2022-03-04 10:30:39.996,4
600,12478,0.77,-1.91,-0.8,39.2,2022-03-04 10:30:40.091,4
601,12500,0.53,-2.04,-1.14,39.2,2022-03-04 10:30:40.196,4
602,12522,-0.4,-1.9,0.69,34.6,2022-03-04 10:30:40.290,4
603,12544,0.66,-1.87,-0.68,34.6,2022-03-04 10:30:40.399,4
604,12564,0.72,-1.82,-0.79,34.6,2022-03-04 10:30:40.498,4
605,12586,0.58,-1.95,0.56,34.6,2022-03-04 10:30:40.599,4
606,12606,0.59,-1.82,-1.05,34.6,2022-03-04 10:30:40.698,4
607,12626,0.67,-1.83,-0.93,34.6,2022-03-04 10:30:40.797,4
608,12646,0.78,-1.73,0.56,34.6,2022-03-04 10:30:40.898,4
609,12666,0.47,-1.75,0.45,34.6,2022-03-04 10:30:40.995,4
610,12686,0.77,-1.76,-1.07,34.6,2022-03-04 10:30:41.097,4
611,12710,0.43,-1.7,-1.1,34.6,2022-03-04 10:30:41.194,4
612,12730,0.53,-1.68,0.85,30.2,2022-03-04 10:30:41.293,4
613,12750,0.66,-1.66,0.65,30.2,2022-03-04 10:30:41.393,4
614,12770,0.53,-1.57,0.73,30.2,2022-03-04 10:30:41.493,4
615,12792,0.98,-1.57,0.65,30.2,2022-03-04 10:30:41.590,4
616,12814,0.48,-1.59,-0.84,30.2,2022-03-04 10:30:41.699,4
617,12834,-0.24,-1.59,-0.76,30.2,2022-03-04 10:30:41.798,4
618,12854,0.34,-1.69,0.9,30.2,2022-03-04 10:30:41.898,4
619,12874,0.49,-1.69,0.64,30.2,2022-03-04 10:30:41.997,4
620,12894,0.42,-1.52,-0.56,30.2,2022-03-04 10:30:42.096,4
621,12918,0.39,-1.54,-0.58,30.2,2022-03-04 10:30:42.196,4
622,12938,0.35,-1.55,-0.31,25.2,2022-03-04 10:30:42.296,4
623,12958,0.33,-1.46,-0.73,25.2,2022-03-04 10:30:42.394,4
624,12978,0.35,-1.41,-0.39,25.2,2022-03-04 10:30:42.494,4
625,13000,0.58,-1.42,0.5,25.2,2022-03-04 10:30:42.594,4
626,13020,0.54,-1.37,0.44,25.2,2022-03-04 10:30:42.694,4
627,13040,0.29,-1.39,-0.82,25.2,2022-03-04 10:30:42.792,4
628,13060,0.39,-1.36,-0.72,25.2,2022-03-04 10:30:42.892,4
629,13080,0.6,-1.42,0.39,25.2,2022-03-04 10:30:42.992,4
630,13102,0.2,-1.3,-0.88,25.2,2022-03-04 10:30:43.099,4
631,13122,0.41,-1.34,0.52,25.2,2022-03-04 10:30:43.199,4
632,13146,0.51,-1.31,-0.44,20.2,2022-03-04 10:30:43.298,4
633,13166,0.34,-1.29,-0.54,20.2,2022-03-04 10:30:43.397,4
634,13186,0.3,-1.35,-0.55,20.2,2022-03-04 10:30:43.497,4
635,13208,0.51,-1.27,-0.35,20.2,2022-03-04 10:30:43.596,4
636,13228,0.39,-1.33,-0.47,20.2,2022-03-04 10:30:43.696,4
637,13248,-0.24,-1.29,-0.52,20.2,2022-03-04 10:30:43.794,4
638,13268,0.34,-1.2,-0.33,20.2,2022-03-04 10:30:43.894,4
639,13288,0.26,-1.19,-0.38,20.2,2022-03-04 10:30:43.995,4
640,13308,0.34,-1.13,-0.69,20.2,2022-03-04 10:30:44.095,4
641,13332,0.26,-1.13,-0.47,20.2,2022-03-04 10:30:44.192,4
642,13352,0.3,-1.22,0.22,14.8,2022-03-04 10:30:44.292,4
643,13372,0.36,-1.13,-0.38,14.8,2022-03-04 10:30:44.391,4
644,13394,0.29,-1.1,-0.62,14.8,2022-03-04 10:30:44.499,4
645,13416,0.27,-1.09,0.18,14.8,2022-03-04 10:30:44.598,4
646,13436,0.29,-1.12,-0.35,14.8,2022-03-04 10:30:44.697,4
647,13456,0.33,-0.98,-0.4,14.8,2022-03-04 10:30:44.796,4
648,13476,0.28,-0.81,0.15,14.8,2022-03-04 10:30:44.896,4
649,13496,0.22,-0.73,-0.33,14.8,2022-03-04 10:30:44.996,4
650,13516,0.17,-0.58,-0.34,14.8,2022-03-04 10:30:45.095,4
651,13540,0.15,-0.47,0.21,14.8,2022-03-04 10:30:45.196,4
652,13560,-0.26,-0.12,-0.23,8.6,2022-03-04 10:30:45.293,4
653,13580,-0.21,0.11,-0.3,8.6,2022-03-04 10:30:45.393,4
654,13600,-0.18,0.19,-0.25,8.6,2022-03-04 10:30:45.492,4
655,13622,-0.25,0.5,-0.28,8.6,2022-03-04 10:30:45.591,4
656,13642,-0.25,0.6,-0.24,8.6,2022-03-04 10:30:45.691,4
657,13662,-0.22,0.61,-0.27,8.6,2022-03-04 10:30:45.792,4
658,13684,-0.14,0.63,-0.33,8.6,2022-03-04 10:30:45.898,4
659,13704,-0.23,0.58,-0.22,8.6,2022-03-04 10:30:45.997,4
660,13724,-0.2,0.53,-0.2,8.6,2022-03-04 10:30:46.096,4
661,13748,-0.21,0.53,-0.27,8.6,2022-03-04 10:30:46.196,4
662,13768,-0.35,0.9,0.2,5.4,2022-03-04 10:30:46.295,4
663,13788,-0.29,1.2,-0.23,5.4,2022-03-04 10:30:46.395,4
664,13808,-0.32,1.38,-0.37,5.4,2022-03-04 10:30:46.495,4
665,13830,-0.27,1.36,-0.32,5.4,2022-03-04 10:30:46.593,4
666,13850,-0.31,1.32,-0.27,5.4,2022-03-04 10:30:46.693,4
667,13870,-0.32,1.06,-0.25,5.4,2022-03-04 10:30:46.793,4
668,13890,-0.37,0.95,-0.22,5.4,2022-03-04 10:30:46.891,4
669,13910,-0.23,1.12,-0.16,5.4,2022-03-04 10:30:46.990,4
670,13930,-0.23,1.11,-0.3,5.4,2022-03-04 10:30:47.090,4
671,13956,-0.28,1.03,-0.29,5.4,2022-03-04 10:30:47.199,4
672,13976,-0.32,0.97,-0.2,4.7,2022-03-04 10:30:47.298,4
673,13996,-0.25,1.01,-0.31,4.7,2022-03-04 10:30:47.397,4
674,14016,-0.24,0.95,-0.34,4.7,2022-03-04 10:30:47.497,4
675,14038,-0.23,0.83,-0.21,4.7,2022-03-04 10:30:47.596,4
676,14058,-0.25,0.89,-0.28,4.7,2022-03-04 10:30:47.695,4
677,14078,-0.21,0.92,-0.33,4.7,2022-03-04 10:30:47.794,4
678,14098,-0.18,0.81,-0.26,4.7,2022-03-04 10:30:47.894,4
679,14118,-0.18,0.78,-0.35,4.7,2022-03-04 10:30:47.993,4
680,14138,-0.27,0.84,-0.26,4.7,2022-03-04 10:30:48.096,4
681,14162,-0.26,0.78,-0.3,4.7,2022-03-04 10:30:48.194,4
682,14182,-0.28,0.72,-0.29,0.4,2022-03-04 10:30:48.292,4
683,14202,-0.22,0.79,-0.3,0.4,2022-03-04 10:30:48.390,4
684,14224,-0.28,0.73,-0.26,0.4,2022-03-04 10:30:48.499,4
685,14244,-0.19,0.72,-0.29,0.4,2022-03-04 10:30:48.590,4
686,14266,-0.34,0.76,-0.23,0.4,2022-03-04 10:30:48.698,4
687,14286,-0.24,0.72,-0.29,0.4,2022-03-04 10:30:48.797,0
688,14306,-0.3,0.68,-0.27,0.4,2022-03-04 10:30:48.896,0
689,14326,-0.27,0.66,-0.29,0.4,2022-03-04 10:30:48.995,0
690,14344,-0.27,0.68,-0.26,0.4,2022-03-04 10:30:49.084,0
691,14368,-0.22,0.63,-0.27,0.4,2022-03-04 10:30:49.199,0
