,LineNumber,Accel_X,Accel_Y,Accel_Z,Velocity,RealTime,Label
0,12,-0.07,0.08,-0.26,0.0,2022-03-04 10:22:43.788,0
1,34,-0.19,0.21,-0.33,0.0,2022-03-04 10:22:43.887,0
2,56,-0.73,-0.31,-0.23,0.0,2022-03-04 10:22:43.997,0
3,76,0.27,0.2,-0.41,0.0,2022-03-04 10:22:44.095,0
4,96,-0.24,0.14,-0.33,0.0,2022-03-04 10:22:44.194,0
5,120,-0.17,0.13,-0.28,0.0,2022-03-04 10:22:44.293,0
6,140,-0.17,0.13,-0.24,0.0,2022-03-04 10:22:44.392,0
7,160,-0.19,0.11,-0.24,0.0,2022-03-04 10:22:44.491,0
8,182,-0.24,0.14,-0.23,0.0,2022-03-04 10:22:44.591,0
9,202,-0.16,0.12,-0.29,0.0,2022-03-04 10:22:44.690,0
10,222,-0.19,0.09,-0.27,0.0,2022-03-04 10:22:44.789,0
11,244,-0.25,0.18,-0.25,0.0,2022-03-04 10:22:44.899,0
12,264,-0.14,0.13,-0.28,0.0,2022-03-04 10:22:44.998,0
13,284,-0.18,0.11,-0.21,0.0,2022-03-04 10:22:45.097,0
14,308,-0.2,0.12,-0.26,0.0,2022-03-04 10:22:45.198,0
15,328,-0.19,0.08,-0.2,0.0,2022-03-04 10:22:45.296,0
16,348,-0.2,0.12,-0.22,0.0,2022-03-04 10:22:45.395,0
17,368,-0.17,0.13,-0.23,0.0,2022-03-04 10:22:45.496,0
18,390,-0.26,0.14,-0.29,0.0,2022-03-04 10:22:45.595,0
19,410,-0.14,0.13,-0.17,0.0,2022-03-04 10:22:45.693,0
20,430,-0.26,0.09,-0.28,0.0,2022-03-04 10:22:45.795,0
21,450,-0.23,0.11,-0.25,0.0,2022-03-04 10:22:45.891,0
22,470,-0.2,0.06,-0.21,0.0,2022-03-04 10:22:45.991,0
23,490,-0.17,0.15,-0.31,0.0,2022-03-04 10:22:46.090,0
24,510,-0.26,0.06,-0.31,0.0,2022-03-04 10:22:46.190,0
25,536,-0.22,0.08,-0.28,0.0,2022-03-04 10:22:46.298,0
26,556,-0.25,0.13,-0.24,0.0,2022-03-04 10:22:46.398,0
27,576,-0.16,0.07,-0.23,0.0,2022-03-04 10:22:46.498,0
28,598,-0.26,0.1,-0.27,0.0,2022-03-04 10:22:46.597,0
29,618,-0.15,0.13,-0.31,0.0,2022-03-04 10:22:46.696,0
30,638,-0.17,0.1,-0.26,0.0,2022-03-04 10:22:46.795,0
31,658,-0.18,0.14,-0.27,0.0,2022-03-04 10:22:46.895,0
32,678,-0.19,0.1,-0.26,0.0,2022-03-04 10:22:46.995,0
33,698,-0.18,0.14,-0.35,0.0,2022-03-04 10:22:47.092,0
34,722,0.18,-0.09,-0.22,0.0,2022-03-04 10:22:47.191,0
35,742,-0.19,0.11,-0.26,0.0,2022-03-04 10:22:47.291,0
36,762,-0.23,0.14,-0.23,0.0,2022-03-04 10:22:47.390,0
37,784,-0.27,-0.12,-0.32,0.0,2022-03-04 10:22:47.499,0
38,806,-0.2,0.19,-0.41,0.0,2022-03-04 10:22:47.598,0
39,826,-0.16,-0.06,-0.29,0.0,2022-03-04 10:22:47.699,0
40,846,-0.17,0.06,-0.29,0.0,2022-03-04 10:22:47.798,0
41,866,-0.22,0.14,0.2,0.0,2022-03-04 10:22:47.899,0
42,886,-0.22,-0.1,-0.28,0.0,2022-03-04 10:22:47.996,0
43,906,-0.13,0.09,-0.3,0.0,2022-03-04 10:22:48.096,0
44,926,-0.19,-0.08,-0.37,0.0,2022-03-04 10:22:48.195,0
45,950,-0.17,0.07,-0.38,0.0,2022-03-04 10:22:48.294,0
46,970,-0.18,0.14,-0.21,0.0,2022-03-04 10:22:48.393,0
47,990,-0.25,0.08,-0.23,0.0,2022-03-04 10:22:48.494,0
48,1012,-0.14,-0.05,-0.31,0.0,2022-03-04 10:22:48.591,0
49,1032,-0.15,-0.05,-0.25,0.0,2022-03-04 10:22:48.690,0
50,1054,-0.31,-0.12,-0.52,0.0,2022-03-04 10:22:48.799,1
51,1074,0.23,-0.11,-0.4,0.0,2022-03-04 10:22:48.899,1
52,1094,0.27,0.41,-0.32,0.0,2022-03-04 10:22:48.998,1
53,1112,-0.37,0.35,-0.41,0.0,2022-03-04 10:22:49.088,1
54,1134,-0.4,0.35,-0.35,0.0,2022-03-04 10:22:49.198,1
55,1158,-0.38,0.35,-0.36,0.0,2022-03-04 10:22:49.296,1
56,1178,-0.23,0.59,-0.41,0.0,2022-03-04 10:22:49.395,1
57,1198,0.32,0.75,-0.49,0.0,2022-03-04 10:22:49.496,1
58,1220,-0.42,0.76,-0.4,0.0,2022-03-04 10:22:49.594,1
59,1240,-0.38,0.73,-0.39,0.0,2022-03-04 10:22:49.693,1
60,1260,-0.47,0.97,-0.29,0.0,2022-03-04 10:22:49.793,1
61,1280,-0.38,1.23,-0.4,0.0,2022-03-04 10:22:49.892,1
62,1300,-0.54,1.34,-0.38,0.0,2022-03-04 10:22:49.993,1
63,1320,-0.54,1.26,-0.67,0.0,2022-03-04 10:22:50.090,1
64,1342,-0.43,1.39,-0.57,0.0,2022-03-04 10:22:50.190,1
65,1366,-0.64,1.62,-0.54,0.0,2022-03-04 10:22:50.298,1
66,1386,-0.83,1.52,0.16,0.0,2022-03-04 10:22:50.398,1
67,1406,-0.62,1.52,-0.65,0.0,2022-03-04 10:22:50.497,1
68,1428,-0.73,1.67,-1.03,0.0,2022-03-04 10:22:50.596,1
69,1448,-0.8,1.9,-0.85,0.0,2022-03-04 10:22:50.696,1
70,1468,-0.63,2.12,-0.44,0.0,2022-03-04 10:22:50.795,1
71,1488,-0.96,2.08,-1.09,0.0,2022-03-04 10:22:50.897,1
72,1508,-1.0,2.27,0.88,0.0,2022-03-04 10:22:50.993,1
73,1528,-0.61,2.18,-1.24,0.0,2022-03-04 10:22:51.094,1
74,1552,-1.05,2.37,1.64,7.6,2022-03-04 10:22:51.192,1
75,1572,-0.99,2.32,-0.8,7.6,2022-03-04 10:22:51.291,1
76,1592,-0.74,2.23,-0.97,7.6,2022-03-04 10:22:51.392,1
77,1614,-0.81,2.37,-0.8,7.6,2022-03-04 10:22:51.499,1
78,1636,-0.64,2.34,-1.47,7.6,2022-03-04 10:22:51.599,1
79,1656,-0.71,2.27,0.83,7.6,2022-03-04 10:22:51.699,1
80,1676,-0.94,2.2,-0.78,7.6,2022-03-04 10:22:51.797,1
81,1696,-0.78,1.87,-1.08,7.6,2022-03-04 10:22:51.897,1
82,1716,-0.62,0.51,-0.98,7.6,2022-03-04 10:22:51.996,1
83,1736,-0.65,0.45,-0.39,7.6,2022-03-04 10:22:52.095,1
84,1756,-0.68,1.72,0.45,13.3,2022-03-04 10:22:52.187,1
85,1780,-0.83,1.72,0.78,13.3,2022-03-04 10:22:52.294,1
86,1800,-0.42,0.64,-0.72,13.3,2022-03-04 10:22:52.393,1
87,1820,0.42,0.47,0.86,13.3,2022-03-04 10:22:52.493,1
88,1842,-0.39,1.29,0.55,13.3,2022-03-04 10:22:52.592,1
89,1862,-0.54,1.65,-0.47,13.3,2022-03-04 10:22:52.692,1
90,1882,0.4,1.14,0.63,13.3,2022-03-04 10:22:52.790,1
91,1904,-0.6,0.75,-0.75,13.3,2022-03-04 10:22:52.899,1
92,1924,-0.48,0.88,-0.78,13.3,2022-03-04 10:22:52.998,1
93,1944,0.49,0.92,-0.95,13.3,2022-03-04 10:22:53.099,1
94,1968,0.36,0.76,-1.18,16.6,2022-03-04 10:22:53.197,1
95,1988,0.53,0.75,-0.4,16.6,2022-03-04 10:22:53.298,1
96,2008,-0.4,0.87,0.82,16.6,2022-03-04 10:22:53.395,1
97,2028,0.54,1.16,0.43,16.6,2022-03-04 10:22:53.495,1
98,2050,-0.45,1.08,-0.68,16.6,2022-03-04 10:22:53.594,1
99,2070,-0.28,1.07,-0.9,16.6,2022-03-04 10:22:53.693,1
100,2090,0.48,1.17,-0.9,16.6,2022-03-04 10:22:53.794,1
101,2110,-0.74,0.91,-0.38,16.6,2022-03-04 10:22:53.894,1
102,2130,-0.59,1.0,-0.61,16.6,2022-03-04 10:22:53.992,1
103,2150,0.52,0.65,-0.49,16.6,2022-03-04 10:22:54.092,1
104,2174,0.73,0.39,-0.54,20.2,2022-03-04 10:22:54.190,1
105,2196,-0.67,0.6,-0.51,20.2,2022-03-04 10:22:54.299,1
106,2216,-0.78,0.62,-0.77,20.2,2022-03-04 10:22:54.398,1
107,2236,0.63,-0.56,-0.68,20.2,2022-03-04 10:22:54.497,1
108,2258,0.3,-0.9,-0.7,20.2,2022-03-04 10:22:54.596,1
109,2278,0.43,-0.98,0.56,20.2,2022-03-04 10:22:54.695,1
110,2298,0.66,-0.78,0.65,20.2,2022-03-04 10:22:54.795,1
111,2318,0.44,-0.87,-0.81,20.2,2022-03-04 10:22:54.894,1
112,2338,0.37,-0.62,-0.64,20.2,2022-03-04 10:22:54.994,1
113,2358,0.49,-0.79,-0.68,20.2,2022-03-04 10:22:55.093,1
114,2382,0.87,-0.8,0.58,22.0,2022-03-04 10:22:55.192,1
115,2402,-0.53,-0.93,0.91,22.0,2022-03-04 10:22:55.291,1
116,2422,-0.37,-1.12,0.52,22.0,2022-03-04 10:22:55.391,1
117,2442,0.51,-0.92,-0.61,22.0,2022-03-04 10:22:55.491,1
118,2466,0.42,-0.68,-0.79,22.0,2022-03-04 10:22:55.599,1
119,2486,0.5,-0.79,-0.38,22.0,2022-03-04 10:22:55.698,1
120,2506,0.28,-0.94,0.41,22.0,2022-03-04 10:22:55.798,1
121,2526,-0.52,-0.65,-0.39,22.0,2022-03-04 10:22:55.897,1
122,2546,0.52,0.44,-0.6,22.0,2022-03-04 10:22:55.997,1
123,2566,0.5,0.87,-0.61,22.0,2022-03-04 10:22:56.099,1
124,2590,-0.37,0.66,0.43,22.7,2022-03-04 10:22:56.195,1
125,2610,-0.45,-0.88,1.0,22.7,2022-03-04 10:22:56.294,1
126,2630,-0.4,0.3,-0.55,22.7,2022-03-04 10:22:56.394,1
127,2650,0.76,0.6,-0.79,22.7,2022-03-04 10:22:56.492,1
128,2672,0.38,0.36,-0.56,22.7,2022-03-04 10:22:56.592,1
129,2692,-0.72,0.74,0.55,22.7,2022-03-04 10:22:56.692,1
130,2712,0.44,0.66,-0.71,22.7,2022-03-04 10:22:56.791,1
131,2734,-1.23,0.95,-1.2,22.7,2022-03-04 10:22:56.899,1
132,2754,-0.76,0.71,-0.73,22.7,2022-03-04 10:22:56.999,1
133,2774,-0.77,0.85,-0.76,22.7,2022-03-04 10:22:57.098,1
134,2798,0.73,0.97,-1.02,25.6,2022-03-04 10:22:57.197,1
135,2818,0.61,0.85,0.59,25.6,2022-03-04 10:22:57.297,1
136,2838,-0.96,0.81,-0.8,25.6,2022-03-04 10:22:57.396,1
137,2858,-0.52,0.84,-1.78,25.6,2022-03-04 10:22:57.495,1
138,2880,-1.02,0.91,0.98,25.6,2022-03-04 10:22:57.594,1
139,2900,0.97,0.58,1.34,25.6,2022-03-04 10:22:57.693,1
140,2920,-0.84,0.71,0.88,25.6,2022-03-04 10:22:57.793,1
141,2940,0.88,0.59,-1.33,25.6,2022-03-04 10:22:57.892,1
142,2960,-1.17,0.61,1.08,25.6,2022-03-04 10:22:57.991,1
143,2980,-1.55,0.57,1.05,25.6,2022-03-04 10:22:58.092,1
144,3006,0.91,0.76,-0.89,29.2,2022-03-04 10:22:58.199,1
145,3024,0.37,0.49,-1.13,29.2,2022-03-04 10:22:58.290,1
146,3046,-0.84,0.48,-1.16,29.2,2022-03-04 10:22:58.398,1
147,3066,-0.85,0.67,0.56,29.2,2022-03-04 10:22:58.498,1
148,3088,1.24,0.65,-0.98,29.2,2022-03-04 10:22:58.597,1
149,3108,0.93,0.72,-2.12,29.2,2022-03-04 10:22:58.696,1
150,3128,0.9,0.57,-1.35,29.2,2022-03-04 10:22:58.795,1
151,3148,0.79,0.52,0.88,29.2,2022-03-04 10:22:58.895,1
152,3168,-1.25,-1.65,-1.12,29.2,2022-03-04 10:22:58.994,1
153,3188,2.2,-1.57,2.57,29.2,2022-03-04 10:22:59.098,1
154,3210,1.43,-0.96,-2.03,31.3,2022-03-04 10:22:59.194,1
155,3232,1.02,-0.88,-1.26,31.3,2022-03-04 10:22:59.292,1
156,3252,-0.91,-1.62,-1.67,31.3,2022-03-04 10:22:59.391,1
157,3272,0.72,-0.86,-1.54,31.3,2022-03-04 10:22:59.491,1
158,3296,0.72,-0.79,0.73,31.3,2022-03-04 10:22:59.599,1
159,3316,0.79,-0.95,-0.6,31.3,2022-03-04 10:22:59.699,1
160,3336,0.8,-0.46,-0.74,31.3,2022-03-04 10:22:59.798,1
161,3356,0.61,0.44,-0.53,31.3,2022-03-04 10:22:59.898,1
162,3376,0.51,0.67,0.58,31.3,2022-03-04 10:22:59.996,1
163,3396,-0.88,-0.45,-0.98,31.3,2022-03-04 10:23:00.098,1
164,3416,-0.85,0.54,0.53,31.3,2022-03-04 10:23:00.195,1
165,3440,-0.49,0.31,-0.76,32.4,2022-03-04 10:23:00.294,1
166,3460,-1.04,0.44,0.51,32.4,2022-03-04 10:23:00.394,1
167,3480,1.18,0.31,-0.97,32.4,2022-03-04 10:23:00.493,1
168,3502,-0.86,0.35,-1.34,32.4,2022-03-04 10:23:00.592,1
169,3522,-1.18,0.55,-0.93,32.4,2022-03-04 10:23:00.691,1
170,3542,-0.85,0.56,-1.53,32.4,2022-03-04 10:23:00.792,1
171,3562,-1.46,0.65,-1.16,32.4,2022-03-04 10:23:00.890,1
172,3582,-0.75,0.55,1.08,32.4,2022-03-04 10:23:00.990,1
173,3604,-1.05,0.86,-1.03,32.4,2022-03-04 10:23:01.098,1
174,3628,-0.53,0.77,-1.1,35.3,2022-03-04 10:23:01.198,1
175,3648,0.96,0.74,-0.79,35.3,2022-03-04 10:23:01.297,1
176,3668,-0.45,1.24,1.35,35.3,2022-03-04 10:23:01.398,1
177,3688,0.8,1.0,-1.91,35.3,2022-03-04 10:23:01.495,1
178,3710,-0.44,1.1,-1.19,35.3,2022-03-04 10:23:01.594,1
179,3730,-0.52,0.97,-1.24,35.3,2022-03-04 10:23:01.694,1
180,3750,0.66,0.71,-0.77,35.3,2022-03-04 10:23:01.793,1
181,3770,0.59,0.92,1.36,35.3,2022-03-04 10:23:01.892,1
182,3790,-0.51,0.64,-1.38,35.3,2022-03-04 10:23:01.992,1
183,3810,-1.1,0.52,0.78,35.3,2022-03-04 10:23:02.091,1
184,3832,-0.81,0.81,-1.2,38.2,2022-03-04 10:23:02.194,1
185,3854,-1.52,0.73,-1.25,38.2,2022-03-04 10:23:02.289,1
186,3876,-0.59,0.68,-1.05,38.2,2022-03-04 10:23:02.399,1
187,3896,1.89,0.54,1.78,38.2,2022-03-04 10:23:02.498,1
188,3916,0.79,0.7,-1.43,38.2,2022-03-04 10:23:02.592,1
189,3938,-0.96,1.06,-1.43,38.2,2022-03-04 10:23:02.696,1
190,3958,1.38,0.71,-1.37,38.2,2022-03-04 10:23:02.798,1
191,3978,0.92,0.64,1.22,38.2,2022-03-04 10:23:02.895,1
192,3998,1.27,-0.65,-1.38,38.2,2022-03-04 10:23:02.994,1
193,4018,0.86,0.6,-1.75,38.2,2022-03-04 10:23:03.093,1
194,4038,1.05,-0.59,3.03,38.2,2022-03-04 10:23:03.193,1
195,4062,1.11,-0.43,-1.37,41.4,2022-03-04 10:23:03.292,1
196,4082,1.08,0.54,1.62,41.4,2022-03-04 10:23:03.392,1
197,4102,1.26,0.69,-1.62,41.4,2022-03-04 10:23:03.491,1
198,4124,-1.49,-0.39,-2.09,41.4,2022-03-04 10:23:03.590,1
199,4144,1.65,-0.49,-1.11,41.4,2022-03-04 10:23:03.689,1
200,4164,0.51,-1.09,1.21,41.4,2022-03-04 10:23:03.789,1
201,4184,-0.99,-0.94,-1.43,41.4,2022-03-04 10:23:03.888,1
202,4206,1.43,0.76,-2.91,41.4,2022-03-04 10:23:03.997,1
203,4226,-1.67,0.58,-1.94,41.4,2022-03-04 10:23:04.097,1
204,4248,-1.3,-0.43,-1.79,43.2,2022-03-04 10:23:04.188,1
205,4270,-1.06,0.92,2.7,43.2,2022-03-04 10:23:04.294,1
206,4290,0.9,0.8,-2.48,43.2,2022-03-04 10:23:04.394,1
207,4310,0.95,0.67,-1.61,43.2,2022-03-04 10:23:04.494,1
208,4332,-1.31,-0.59,1.68,43.2,2022-03-04 10:23:04.593,1
209,4352,-0.94,0.47,1.39,43.2,2022-03-04 10:23:04.691,1
210,4372,-1.51,0.31,1.48,43.2,2022-03-04 10:23:04.791,1
211,4392,1.17,0.28,1.16,43.2,2022-03-04 10:23:04.890,1
212,4412,-1.25,0.4,-1.36,43.2,2022-03-04 10:23:04.989,1
213,4432,-1.55,-0.3,-2.29,43.2,2022-03-04 10:23:05.090,1
214,4458,0.73,0.36,1.22,45.7,2022-03-04 10:23:05.198,1
215,4478,1.31,-0.49,-1.72,45.7,2022-03-04 10:23:05.299,10
216,4498,0.72,-0.51,0.97,45.7,2022-03-04 10:23:05.396,10
217,4518,0.95,-0.53,0.66,45.7,2022-03-04 10:23:05.495,10
218,4540,0.68,-1.4,0.78,45.7,2022-03-04 10:23:05.596,10
219,4560,1.01,-1.2,1.34,45.7,2022-03-04 10:23:05.694,10
220,4580,0.94,-1.14,-0.85,45.7,2022-03-04 10:23:05.793,10
221,4600,0.86,-1.28,0.73,45.7,2022-03-04 10:23:05.892,10
222,4620,0.92,-1.0,-0.71,45.7,2022-03-04 10:23:05.992,10
223,4640,-0.96,-1.2,1.71,45.7,2022-03-04 10:23:06.095,10
224,4662,0.46,-1.46,-0.96,46.4,2022-03-04 10:23:06.194,10
225,4684,1.13,-1.34,-0.96,46.4,2022-03-04 10:23:06.289,10
226,4704,0.82,-1.13,1.35,46.4,2022-03-04 10:23:06.389,10
227,4724,0.9,-1.01,-1.3,46.4,2022-03-04 10:23:06.488,10
228,4748,0.65,-0.86,-0.79,46.4,2022-03-04 10:23:06.598,10
229,4768,-0.53,-0.8,-1.33,46.4,2022-03-04 10:23:06.699,10
230,4788,1.09,-0.42,-0.91,46.4,2022-03-04 10:23:06.798,10
231,4808,0.97,-0.57,0.8,46.4,2022-03-04 10:23:06.895,10
232,4828,-0.57,-0.29,-0.51,46.4,2022-03-04 10:23:06.995,10
233,4848,-0.77,-1.09,-1.35,46.4,2022-03-04 10:23:07.094,10
234,4872,-1.06,-0.5,-1.4,46.8,2022-03-04 10:23:07.194,10
235,4892,0.74,-0.69,-1.35,46.8,2022-03-04 10:23:07.292,10
236,4912,0.79,-1.03,-1.08,46.8,2022-03-04 10:23:07.391,10
237,4932,-1.51,-0.47,-1.28,46.8,2022-03-04 10:23:07.491,10
238,4954,0.8,-1.0,-1.29,46.8,2022-03-04 10:23:07.591,10
239,4974,-1.66,-0.95,2.68,46.8,2022-03-04 10:23:07.689,10
240,4994,-1.38,-0.77,1.97,46.8,2022-03-04 10:23:07.788,10
241,5014,0.81,-0.67,-2.04,46.8,2022-03-04 10:23:07.888,10
242,5036,-1.13,-0.85,-1.89,46.8,2022-03-04 10:23:07.998,10
243,5056,1.37,-0.83,0.93,46.8,2022-03-04 10:23:08.097,10
244,5080,-0.71,-0.82,-0.72,47.5,2022-03-04 10:23:08.197,10
245,5100,0.56,-0.75,-1.5,47.5,2022-03-04 10:23:08.297,4
246,5120,0.53,-0.73,0.98,47.5,2022-03-04 10:23:08.394,4
247,5140,-0.53,-0.63,-1.38,47.5,2022-03-04 10:23:08.496,4
248,5162,0.9,-0.8,-1.23,47.5,2022-03-04 10:23:08.592,4
249,5182,0.59,-0.8,-1.26,47.5,2022-03-04 10:23:08.692,4
250,5202,0.92,-0.73,-1.48,47.5,2022-03-04 10:23:08.792,4
251,5222,0.96,-0.87,-0.74,47.5,2022-03-04 10:23:08.891,4
252,5242,1.26,-0.95,1.23,47.5,2022-03-04 10:23:08.990,4
253,5262,0.52,-0.92,-0.69,47.5,2022-03-04 10:23:09.089,4
254,5286,0.85,-1.11,-1.55,48.2,2022-03-04 10:23:09.188,4
255,5308,0.82,-1.01,1.06,48.2,2022-03-04 10:23:09.298,4
256,5328,-0.69,-1.3,-0.95,48.2,2022-03-04 10:23:09.397,4
257,5348,-0.56,-1.28,-0.78,48.2,2022-03-04 10:23:09.498,4
258,5370,0.84,-0.97,-0.77,48.2,2022-03-04 10:23:09.595,4
259,5390,0.78,-1.05,-0.61,48.2,2022-03-04 10:23:09.695,4
260,5410,0.73,-1.31,-0.76,48.2,2022-03-04 10:23:09.794,4
261,5430,0.55,-1.31,1.01,48.2,2022-03-04 10:23:09.894,4
262,5450,0.6,-1.16,0.92,48.2,2022-03-04 10:23:09.993,4
263,5470,0.78,-1.22,-0.44,48.2,2022-03-04 10:23:10.098,4
264,5490,0.74,-1.16,0.81,48.2,2022-03-04 10:23:10.191,4
265,5514,0.56,-1.19,-0.5,48.2,2022-03-04 10:23:10.291,4
266,5536,0.47,-1.22,-0.7,47.5,2022-03-04 10:23:10.399,4
267,5554,0.86,-1.28,-0.47,47.5,2022-03-04 10:23:10.489,4
268,5578,0.49,-1.29,0.75,47.5,2022-03-04 10:23:10.598,4
269,5598,-1.63,-1.91,0.91,47.5,2022-03-04 10:23:10.698,4
270,5618,-2.15,-1.6,-1.2,47.5,2022-03-04 10:23:10.797,4
271,5638,2.04,-2.12,-0.94,47.5,2022-03-04 10:23:10.896,4
272,5658,-1.31,-1.87,0.79,47.5,2022-03-04 10:23:10.997,4
273,5678,0.63,-1.44,-0.81,47.5,2022-03-04 10:23:11.095,4
274,5702,1.86,-2.05,-1.16,47.5,2022-03-04 10:23:11.194,4
275,5722,2.31,-1.87,1.22,45.7,2022-03-04 10:23:11.296,4
276,5742,1.73,-1.79,-0.82,45.7,2022-03-04 10:23:11.393,4
277,5762,1.1,-1.66,-1.2,45.7,2022-03-04 10:23:11.492,4
278,5784,0.76,-1.33,0.58,45.7,2022-03-04 10:23:11.591,4
279,5804,0.87,-1.51,-0.98,45.7,2022-03-04 10:23:11.691,4
280,5824,-0.94,-1.28,1.15,45.7,2022-03-04 10:23:11.788,4
281,5846,1.03,-1.42,1.19,45.7,2022-03-04 10:23:11.898,4
282,5866,0.8,-1.42,-0.8,45.7,2022-03-04 10:23:11.998,4
283,5886,1.15,-1.23,-0.61,45.7,2022-03-04 10:23:12.097,4
284,5910,-0.65,-1.29,-0.86,45.7,2022-03-04 10:23:12.197,4
285,5930,0.53,-1.41,-0.75,43.6,2022-03-04 10:23:12.296,4
286,5950,-0.68,-1.33,-0.93,43.6,2022-03-04 10:23:12.398,4
287,5970,1.03,-1.29,0.79,43.6,2022-03-04 10:23:12.495,4
288,5992,-0.69,-1.14,-0.7,43.6,2022-03-04 10:23:12.594,4
289,6012,0.62,-1.4,-0.53,43.6,2022-03-04 10:23:12.694,4
290,6032,1.26,-1.43,-0.74,43.6,2022-03-04 10:23:12.791,4
291,6052,1.1,-1.31,-0.78,43.6,2022-03-04 10:23:12.891,4
292,6074,0.55,-1.28,-0.78,43.6,2022-03-04 10:23:12.999,4
293,6092,0.82,-1.09,-0.51,43.6,2022-03-04 10:23:13.089,4
294,6114,0.53,-1.45,-0.85,43.6,2022-03-04 10:23:13.191,4
295,6138,1.12,-1.3,-0.46,41.0,2022-03-04 10:23:13.298,4
296,6158,0.92,-1.26,-0.76,41.0,2022-03-04 10:23:13.397,4
297,6178,0.84,-1.12,0.59,41.0,2022-03-04 10:23:13.496,4
298,6200,0.81,-1.16,0.39,41.0,2022-03-04 10:23:13.596,4
299,6220,0.64,-1.1,-0.94,41.0,2022-03-04 10:23:13.696,4
300,6240,0.79,-1.27,-0.83,41.0,2022-03-04 10:23:13.795,4
301,6260,0.65,-1.25,-0.58,41.0,2022-03-04 10:23:13.893,4
302,6280,0.68,-1.27,-0.61,41.0,2022-03-04 10:23:13.993,4
303,6300,0.62,-1.05,-0.84,41.0,2022-03-04 10:23:14.094,4
304,6324,0.9,-1.16,0.54,41.0,2022-03-04 10:23:14.193,4
305,6344,0.74,-0.91,0.41,37.8,2022-03-04 10:23:14.292,4
306,6366,1.04,-1.16,-0.91,37.8,2022-03-04 10:23:14.399,4
307,6386,0.79,-1.16,-0.45,37.8,2022-03-04 10:23:14.499,4
308,6408,0.87,-1.12,-0.59,37.8,2022-03-04 10:23:14.598,4
309,6428,0.96,-1.18,0.59,37.8,2022-03-04 10:23:14.697,4
310,6448,1.15,-1.13,0.51,37.8,2022-03-04 10:23:14.797,4
311,6468,0.88,-1.22,-0.76,37.8,2022-03-04 10:23:14.896,4
312,6488,1.45,-1.23,0.3,37.8,2022-03-04 10:23:14.996,4
313,6506,1.28,-1.25,0.67,37.8,2022-03-04 10:23:15.087,4
314,6532,1.71,-1.34,0.83,37.8,2022-03-04 10:23:15.194,4
315,6552,1.9,-1.6,-0.6,33.8,2022-03-04 10:23:15.294,4
316,6572,1.66,-1.56,-0.72,33.8,2022-03-04 10:23:15.392,4
317,6592,1.63,-1.5,-0.46,33.8,2022-03-04 10:23:15.492,4
318,6614,1.47,-1.57,-0.41,33.8,2022-03-04 10:23:15.593,4
319,6634,1.63,-1.55,-0.7,33.8,2022-03-04 10:23:15.692,4
320,6656,1.68,-1.61,-0.43,33.8,2022-03-04 10:23:15.799,4
321,6676,1.62,-1.69,0.8,33.8,2022-03-04 10:23:15.899,7
322,6696,1.41,-1.61,-0.84,33.8,2022-03-04 10:23:15.998,7
323,6716,1.24,-1.64,-0.46,33.8,2022-03-04 10:23:16.099,7
324,6740,1.37,-1.64,-0.75,33.8,2022-03-04 10:23:16.199,7
325,6760,1.09,-1.41,-0.51,27.7,2022-03-04 10:23:16.295,7
326,6780,0.67,-1.18,-0.67,27.7,2022-03-04 10:23:16.397,7
327,6800,0.63,-0.69,-0.9,27.7,2022-03-04 10:23:16.495,7
328,6822,0.58,-0.42,0.73,27.7,2022-03-04 10:23:16.595,7
329,6842,-0.57,-0.48,-0.33,27.7,2022-03-04 10:23:16.694,7
330,6862,-0.59,-0.43,-0.53,27.7,2022-03-04 10:23:16.792,7
331,6882,-0.68,-0.26,-0.63,27.7,2022-03-04 10:23:16.893,7
332,6902,-0.93,-0.23,-0.5,27.7,2022-03-04 10:23:16.992,7
333,6924,-1.31,-0.21,0.53,27.7,2022-03-04 10:23:17.099,7
334,6948,-1.65,-0.34,-0.49,27.7,2022-03-04 10:23:17.199,7
335,6968,-2.03,-0.4,-0.75,23.8,2022-03-04 10:23:17.298,7
336,6988,-1.62,-0.28,-0.94,23.8,2022-03-04 10:23:17.397,7
337,7008,-2.2,-0.3,-0.66,23.8,2022-03-04 10:23:17.496,7
338,7030,-2.0,-0.39,0.69,23.8,2022-03-04 10:23:17.597,7
339,7050,-2.43,-0.37,0.75,23.8,2022-03-04 10:23:17.695,7
340,7070,-2.16,-0.4,-0.44,23.8,2022-03-04 10:23:17.794,7
341,7090,-3.01,-0.7,-0.59,23.8,2022-03-04 10:23:17.894,7
342,7110,-2.48,-0.68,-0.54,23.8,2022-03-04 10:23:17.994,7
343,7130,-2.91,-0.63,0.71,23.8,2022-03-04 10:23:18.095,7
344,7154,-2.62,-0.6,0.67,23.8,2022-03-04 10:23:18.192,7
345,7174,-2.8,-0.73,-0.37,22.3,2022-03-04 10:23:18.292,7
346,7194,-2.86,-0.72,0.7,22.3,2022-03-04 10:23:18.393,7
347,7216,-2.48,-0.72,0.3,22.3,2022-03-04 10:23:18.499,7
348,7238,-2.68,-0.67,-0.7,22.3,2022-03-04 10:23:18.598,7
349,7258,-2.66,-0.71,0.54,22.3,2022-03-04 10:23:18.697,7
350,7278,-2.46,-0.53,0.87,22.3,2022-03-04 10:23:18.797,7
351,7298,-2.53,-0.59,0.74,22.3,2022-03-04 10:23:18.896,7
352,7318,-2.49,-0.39,0.44,22.3,2022-03-04 10:23:18.996,7
353,7338,-2.7,-0.32,-0.43,22.3,2022-03-04 10:23:19.096,7
354,7362,-2.55,-0.33,0.7,22.3,2022-03-04 10:23:19.196,7
355,7382,-2.68,-0.38,-0.47,19.1,2022-03-04 10:23:19.294,7
356,7402,-2.32,-0.39,0.8,19.1,2022-03-04 10:23:19.394,7
357,7422,-2.3,-0.38,-0.6,19.1,2022-03-04 10:23:19.492,7
358,7444,-2.28,-0.44,0.36,19.1,2022-03-04 10:23:19.591,7
359,7464,-2.32,-0.44,-0.46,19.1,2022-03-04 10:23:19.693,7
360,7486,-2.37,-0.6,0.88,19.1,2022-03-04 10:23:19.799,7
361,7506,-2.75,-0.62,-0.73,19.1,2022-03-04 10:23:19.898,7
362,7526,-2.22,-0.56,0.69,19.1,2022-03-04 10:23:19.998,7
363,7544,-2.22,-0.82,-0.82,19.1,2022-03-04 10:23:20.089,7
364,7566,-2.32,-0.7,-0.64,19.1,2022-03-04 10:23:20.196,7
365,7590,-2.28,-0.71,-0.9,19.1,2022-03-04 10:23:20.298,7
366,7610,-2.35,-0.86,-0.51,17.3,2022-03-04 10:23:20.395,7
367,7630,-2.48,-0.87,0.74,17.3,2022-03-04 10:23:20.494,7
368,7652,-2.47,-0.86,0.52,17.3,2022-03-04 10:23:20.594,7
369,7672,-2.13,-1.01,0.8,17.3,2022-03-04 10:23:20.694,7
370,7692,-2.03,-0.97,-0.84,17.3,2022-03-04 10:23:20.792,7
371,7712,-1.88,-0.87,0.58,17.3,2022-03-04 10:23:20.892,7
372,7732,-2.06,-0.99,0.54,17.3,2022-03-04 10:23:20.991,7
373,7752,-1.77,-1.07,0.64,17.3,2022-03-04 10:23:21.091,7
374,7776,-1.99,-1.12,-0.83,17.3,2022-03-04 10:23:21.190,7
375,7798,-1.95,-1.16,-0.73,16.2,2022-03-04 10:23:21.298,7
376,7818,-1.95,-1.28,-0.36,16.2,2022-03-04 10:23:21.397,7
377,7838,-1.92,-1.12,-0.72,16.2,2022-03-04 10:23:21.497,7
378,7860,-1.98,-1.35,0.43,16.2,2022-03-04 10:23:21.596,7
379,7880,-2.06,-1.18,0.63,16.2,2022-03-04 10:23:21.695,7
380,7900,-1.95,-1.19,-0.86,16.2,2022-03-04 10:23:21.795,7
381,7920,-1.94,-1.3,-0.98,16.2,2022-03-04 10:23:21.894,7
382,7940,-2.11,-1.25,-0.86,16.2,2022-03-04 10:23:21.993,7
383,7960,-2.55,-1.3,0.87,16.2,2022-03-04 10:23:22.092,7
384,7984,-2.36,-1.42,0.85,16.2,2022-03-04 10:23:22.193,7
385,8004,-2.59,-1.56,0.82,14.8,2022-03-04 10:23:22.291,7
386,8024,-2.63,-1.63,-0.7,14.8,2022-03-04 10:23:22.391,7
387,8044,-2.61,-1.81,-1.22,14.8,2022-03-04 10:23:22.490,7
388,8066,-2.66,-1.8,1.0,14.8,2022-03-04 10:23:22.589,7
389,8088,-2.46,-2.16,-0.65,14.8,2022-03-04 10:23:22.698,7
390,8108,-3.25,-1.81,1.0,14.8,2022-03-04 10:23:22.797,7
391,8128,-2.67,-2.05,-0.78,14.8,2022-03-04 10:23:22.897,7
392,8148,-3.38,-2.11,0.82,14.8,2022-03-04 10:23:22.996,7
393,8168,-2.73,-1.92,1.29,14.8,2022-03-04 10:23:23.095,7
394,8192,-3.39,-2.09,0.89,16.2,2022-03-04 10:23:23.195,7
395,8212,-3.45,-1.77,0.68,16.2,2022-03-04 10:23:23.294,7
396,8232,-3.8,-1.75,-0.77,16.2,2022-03-04 10:23:23.393,7
397,8252,-3.27,-1.68,-0.78,16.2,2022-03-04 10:23:23.492,7
398,8274,-2.84,-2.04,0.75,16.2,2022-03-04 10:23:23.591,7
399,8294,-2.67,-1.7,-0.98,16.2,2022-03-04 10:23:23.692,7
400,8314,-2.81,-1.61,0.7,16.2,2022-03-04 10:23:23.791,7
401,8336,-3.86,-1.99,1.72,16.2,2022-03-04 10:23:23.899,7
402,8356,-4.04,-1.51,-0.84,16.2,2022-03-04 10:23:23.999,7
403,8376,-2.5,-1.66,1.0,16.2,2022-03-04 10:23:24.099,7
404,8400,-2.43,-1.46,0.87,17.3,2022-03-04 10:23:24.198,7
405,8420,-2.08,-1.42,0.92,17.3,2022-03-04 10:23:24.296,7
406,8440,-1.64,-1.24,1.11,17.3,2022-03-04 10:23:24.395,7
407,8460,-0.99,-1.28,-1.53,17.3,2022-03-04 10:23:24.498,7
408,8482,-1.68,-1.22,-1.07,17.3,2022-03-04 10:23:24.595,7
409,8502,-0.95,-1.24,-1.24,17.3,2022-03-04 10:23:24.694,7
410,8522,-0.71,-1.04,0.57,17.3,2022-03-04 10:23:24.792,7
411,8542,-0.83,-0.71,-0.88,17.3,2022-03-04 10:23:24.892,7
412,8562,-0.9,-1.03,0.91,17.3,2022-03-04 10:23:24.991,7
413,8582,-0.8,-0.94,1.09,17.3,2022-03-04 10:23:25.090,1
414,8603,-0.43,-1.17,0.43,17.6,2022-03-04 10:23:25.190,1
415,8628,-0.61,-0.7,0.94,17.6,2022-03-04 10:23:25.298,1
416,8648,-0.54,-0.87,-0.52,17.6,2022-03-04 10:23:25.398,1
417,8668,0.5,-0.81,-0.57,17.6,2022-03-04 10:23:25.497,1
418,8690,1.0,-0.89,-0.96,17.6,2022-03-04 10:23:25.596,1
419,8710,0.84,-0.79,-0.45,17.6,2022-03-04 10:23:25.697,1
420,8730,0.77,-0.76,0.52,17.6,2022-03-04 10:23:25.795,1
421,8750,0.8,-0.69,0.62,17.6,2022-03-04 10:23:25.894,1
422,8770,0.43,-0.68,-0.54,17.6,2022-03-04 10:23:25.994,1
423,8790,0.41,-0.63,-0.49,17.6,2022-03-04 10:23:26.093,1
424,8814,0.53,-0.67,-0.71,20.5,2022-03-04 10:23:26.192,1
425,8834,0.98,-0.42,0.58,20.5,2022-03-04 10:23:26.292,1
426,8854,0.98,-0.57,0.48,20.5,2022-03-04 10:23:26.390,1
427,8874,0.7,-0.51,-0.39,20.5,2022-03-04 10:23:26.490,1
428,8898,0.97,-0.49,-0.83,20.5,2022-03-04 10:23:26.599,1
429,8918,0.9,-0.39,-0.51,20.5,2022-03-04 10:23:26.698,1
430,8938,0.98,-0.44,0.71,20.5,2022-03-04 10:23:26.798,1
431,8958,0.96,-0.55,-1.02,20.5,2022-03-04 10:23:26.897,1
432,8978,1.11,-0.4,0.83,20.5,2022-03-04 10:23:26.996,1
433,8998,1.35,-0.33,-0.91,20.5,2022-03-04 10:23:27.095,1
434,9022,1.48,-0.55,0.81,23.8,2022-03-04 10:23:27.195,1
435,9042,1.22,-0.57,0.55,23.8,2022-03-04 10:23:27.294,1
436,9062,1.04,-0.29,-0.73,23.8,2022-03-04 10:23:27.393,1
437,9082,0.79,-0.44,-0.74,23.8,2022-03-04 10:23:27.494,1
438,9104,1.33,-0.61,-1.0,23.8,2022-03-04 10:23:27.591,1
439,9124,1.54,-0.44,0.67,23.8,2022-03-04 10:23:27.691,1
440,9144,0.87,-0.37,-0.93,23.8,2022-03-04 10:23:27.790,1
441,9164,1.25,-0.33,0.46,23.8,2022-03-04 10:23:27.889,1
442,9184,1.31,-0.69,0.76,23.8,2022-03-04 10:23:27.990,1
443,9204,1.88,-0.36,1.02,23.8,2022-03-04 10:23:28.091,1
444,9230,1.24,-0.41,-0.98,25.9,2022-03-04 10:23:28.198,1
445,9250,1.33,-0.37,0.79,25.9,2022-03-04 10:23:28.297,1
446,9270,1.26,-0.5,-0.71,25.9,2022-03-04 10:23:28.396,1
447,9290,1.04,-0.49,1.19,25.9,2022-03-04 10:23:28.495,1
448,9312,1.16,-0.32,0.67,25.9,2022-03-04 10:23:28.594,1
449,9332,1.35,-0.47,-0.64,25.9,2022-03-04 10:23:28.693,1
450,9352,1.16,-0.51,-0.55,25.9,2022-03-04 10:23:28.795,1
451,9372,1.02,-0.41,-0.6,25.9,2022-03-04 10:23:28.892,1
452,9392,0.75,-0.51,0.8,25.9,2022-03-04 10:23:28.991,1
453,9412,1.27,-0.43,-0.72,25.9,2022-03-04 10:23:29.090,1
454,9436,1.11,-0.35,-0.81,27.7,2022-03-04 10:23:29.192,1
455,9456,1.14,-0.55,-0.76,27.7,2022-03-04 10:23:29.289,1
456,9478,0.81,-0.6,0.69,27.7,2022-03-04 10:23:29.399,1
457,9498,0.65,-0.52,1.16,27.7,2022-03-04 10:23:29.497,1
458,9520,0.57,-0.58,-1.21,27.7,2022-03-04 10:23:29.596,1
459,9540,0.57,-0.55,0.83,27.7,2022-03-04 10:23:29.696,1
460,9560,0.82,-0.6,0.87,27.7,2022-03-04 10:23:29.795,1
461,9580,1.4,-0.7,-0.62,27.7,2022-03-04 10:23:29.894,1
462,9600,0.54,-0.5,1.31,27.7,2022-03-04 10:23:29.994,1
463,9620,1.15,-1.41,1.27,27.7,2022-03-04 10:23:30.093,1
464,9644,0.9,-1.46,-0.87,29.5,2022-03-04 10:23:30.192,1
465,9664,1.03,-1.26,0.45,29.5,2022-03-04 10:23:30.291,1
466,9684,0.72,-1.35,0.33,29.5,2022-03-04 10:23:30.391,1
467,9704,0.57,-1.25,-0.89,29.5,2022-03-04 10:23:30.490,1
468,9726,0.79,-1.22,-0.99,29.5,2022-03-04 10:23:30.589,1
469,9746,0.65,-1.26,-0.52,29.5,2022-03-04 10:23:30.689,1
470,9768,0.61,-1.41,-0.65,29.5,2022-03-04 10:23:30.798,1
471,9788,0.61,-1.3,-0.41,29.5,2022-03-04 10:23:30.899,1
472,9808,0.58,-1.36,-0.4,29.5,2022-03-04 10:23:30.998,1
473,9828,0.85,-1.41,0.77,29.5,2022-03-04 10:23:31.096,1
474,9852,0.66,-1.57,1.19,29.5,2022-03-04 10:23:31.196,1
475,9872,1.21,-1.2,-0.64,29.2,2022-03-04 10:23:31.295,1
476,9892,0.76,-1.17,0.56,29.2,2022-03-04 10:23:31.393,1
477,9912,1.01,-1.19,0.7,29.2,2022-03-04 10:23:31.492,1
478,9934,0.95,-1.16,-0.81,29.2,2022-03-04 10:23:31.592,1
479,9954,0.77,-1.2,-0.89,29.2,2022-03-04 10:23:31.691,1
480,9974,0.73,-1.18,-0.91,29.2,2022-03-04 10:23:31.792,1
481,9996,1.24,-1.76,-1.24,29.2,2022-03-04 10:23:31.899,1
482,10014,0.91,-1.08,0.79,29.2,2022-03-04 10:23:31.989,1
483,10034,0.76,-1.15,-0.46,29.2,2022-03-04 10:23:32.092,1
484,10060,0.92,-1.08,-0.72,29.2,2022-03-04 10:23:32.198,1
485,10080,0.57,-1.2,-0.34,29.2,2022-03-04 10:23:32.297,1
486,10100,0.96,-1.22,-0.5,29.2,2022-03-04 10:23:32.398,1
487,10120,0.58,-1.13,-0.62,29.2,2022-03-04 10:23:32.497,1
488,10142,0.57,-1.32,-0.58,29.2,2022-03-04 10:23:32.594,1
489,10162,0.48,-1.19,-0.86,29.2,2022-03-04 10:23:32.694,1
490,10182,0.93,-0.43,1.16,29.2,2022-03-04 10:23:32.793,1
491,10202,0.45,0.65,-0.87,29.2,2022-03-04 10:23:32.892,1
492,10222,0.71,0.83,-1.42,29.2,2022-03-04 10:23:32.991,1
493,10242,1.09,1.37,-1.52,29.2,2022-03-04 10:23:33.091,1
494,10266,-0.34,1.84,-1.78,30.2,2022-03-04 10:23:33.190,1
495,10288,0.82,2.06,1.63,30.2,2022-03-04 10:23:33.299,1
496,10306,0.47,1.1,-0.78,30.2,2022-03-04 10:23:33.389,1
497,10326,0.84,1.63,-1.36,30.2,2022-03-04 10:23:33.488,1
498,10350,-0.98,1.12,1.56,30.2,2022-03-04 10:23:33.598,1
499,10370,1.16,2.09,0.94,30.2,2022-03-04 10:23:33.697,1
500,10388,-1.09,1.25,-1.81,30.2,2022-03-04 10:23:33.786,1
501,10410,0.76,1.21,-1.32,30.2,2022-03-04 10:23:33.898,1
502,10430,-0.98,1.25,-1.53,30.2,2022-03-04 10:23:33.994,1
503,10450,-0.94,1.07,-2.71,30.2,2022-03-04 10:23:34.099,1
504,10474,0.66,0.61,1.55,35.3,2022-03-04 10:23:34.192,1
505,10494,-0.48,0.68,-1.76,35.3,2022-03-04 10:23:34.291,1
506,10514,0.73,0.63,-0.86,35.3,2022-03-04 10:23:34.392,1
507,10534,0.62,0.48,-1.4,35.3,2022-03-04 10:23:34.491,1
508,10558,0.78,0.53,-0.74,35.3,2022-03-04 10:23:34.599,1
509,10578,0.29,0.64,-1.14,35.3,2022-03-04 10:23:34.699,1
510,10596,0.68,0.37,0.76,35.3,2022-03-04 10:23:34.788,1
511,10618,0.51,0.54,-1.19,35.3,2022-03-04 10:23:34.898,1
512,10638,0.73,0.63,0.75,35.3,2022-03-04 10:23:34.997,1
513,10658,-0.58,0.53,-0.94,35.3,2022-03-04 10:23:35.097,1
514,10682,-0.37,0.55,-0.73,37.4,2022-03-04 10:23:35.196,1
515,10702,1.0,-0.46,1.08,37.4,2022-03-04 10:23:35.297,1
516,10722,0.86,-1.51,1.28,37.4,2022-03-04 10:23:35.396,1
517,10742,-0.61,-1.12,1.05,37.4,2022-03-04 10:23:35.493,1
518,10764,0.63,-1.17,-0.4,37.4,2022-03-04 10:23:35.592,1
519,10784,0.5,-1.03,0.72,37.4,2022-03-04 10:23:35.692,1
520,10804,0.91,-1.14,-0.7,37.4,2022-03-04 10:23:35.790,1
521,10824,0.81,-1.12,-0.6,37.4,2022-03-04 10:23:35.890,1
522,10846,0.76,-1.2,-0.42,37.4,2022-03-04 10:23:35.999,1
523,10864,0.63,-1.12,0.59,37.4,2022-03-04 10:23:36.090,1
524,10884,0.35,-0.75,-1.06,37.4,2022-03-04 10:23:36.188,1
525,10910,0.47,0.46,-1.11,37.4,2022-03-04 10:23:36.298,1
526,10930,0.78,-0.92,-1.62,37.4,2022-03-04 10:23:36.398,1
527,10950,0.81,-0.75,-0.61,37.4,2022-03-04 10:23:36.496,1
528,10972,0.88,-0.29,0.42,37.4,2022-03-04 10:23:36.597,1
529,10992,0.58,-0.31,-0.64,37.4,2022-03-04 10:23:36.695,1
530,11012,0.71,0.28,-0.53,37.4,2022-03-04 10:23:36.794,1
531,11032,0.6,0.42,0.96,37.4,2022-03-04 10:23:36.894,1
532,11052,-1.08,0.43,0.86,37.4,2022-03-04 10:23:36.992,1
533,11072,-0.58,-0.48,-0.94,37.4,2022-03-04 10:23:37.091,1
534,11096,-1.06,0.48,-1.33,38.5,2022-03-04 10:23:37.191,1
535,11116,-1.01,0.54,-1.44,38.5,2022-03-04 10:23:37.290,1
536,11138,0.75,0.59,-1.14,38.5,2022-03-04 10:23:37.399,1
537,11156,-1.21,0.67,-1.8,38.5,2022-03-04 10:23:37.489,1
538,11180,-0.99,0.71,-1.83,38.5,2022-03-04 10:23:37.597,1
539,11200,0.85,0.86,1.71,38.5,2022-03-04 10:23:37.697,1
540,11220,1.53,0.67,-1.57,38.5,2022-03-04 10:23:37.796,1
541,11240,1.54,0.6,-1.28,38.5,2022-03-04 10:23:37.896,1
542,11260,0.97,0.74,1.44,38.5,2022-03-04 10:23:37.995,1
543,11280,1.51,-0.59,-1.85,38.5,2022-03-04 10:23:38.094,1
544,11304,0.57,-0.75,-1.11,41.0,2022-03-04 10:23:38.194,1
545,11324,0.59,-0.85,1.86,41.0,2022-03-04 10:23:38.294,1
546,11344,-0.43,-0.57,-1.08,41.0,2022-03-04 10:23:38.393,1
547,11364,0.87,-0.79,0.42,41.0,2022-03-04 10:23:38.491,1
548,11386,0.93,-0.74,0.88,41.0,2022-03-04 10:23:38.594,1
549,11408,0.52,-0.7,0.89,41.0,2022-03-04 10:23:38.699,1
550,11426,0.86,-0.62,-0.42,41.0,2022-03-04 10:23:38.788,1
551,11446,1.61,-0.48,1.34,41.0,2022-03-04 10:23:38.887,1
552,11468,1.58,-0.59,-1.27,41.0,2022-03-04 10:23:38.998,1
553,11488,0.57,-0.9,0.97,41.0,2022-03-04 10:23:39.096,1
554,11508,0.52,-0.7,-0.86,41.0,2022-03-04 10:23:39.199,1
555,11532,1.02,-0.6,-1.18,42.1,2022-03-04 10:23:39.295,10
556,11552,1.03,-0.75,1.66,42.1,2022-03-04 10:23:39.395,10
557,11572,0.43,-0.64,-0.79,42.1,2022-03-04 10:23:39.494,10
558,11594,0.87,-0.68,1.11,42.1,2022-03-04 10:23:39.593,10
559,11614,0.78,-0.63,1.01,42.1,2022-03-04 10:23:39.694,10
560,11634,1.17,-0.61,0.85,42.1,2022-03-04 10:23:39.794,10
561,11654,0.66,-0.8,-0.84,42.1,2022-03-04 10:23:39.890,10
562,11676,0.8,-0.85,-1.17,42.1,2022-03-04 10:23:39.999,10
563,11696,0.52,-0.82,-0.87,42.1,2022-03-04 10:23:40.099,10
564,11720,0.4,-0.82,-0.61,42.8,2022-03-04 10:23:40.198,10
565,11740,1.13,-0.95,-0.8,42.8,2022-03-04 10:23:40.298,10
566,11760,0.7,-0.7,0.48,42.8,2022-03-04 10:23:40.396,10
567,11780,0.47,-0.68,0.9,42.8,2022-03-04 10:23:40.497,10
568,11802,0.88,-0.78,-0.84,42.8,2022-03-04 10:23:40.597,10
569,11822,0.68,-0.48,-1.01,42.8,2022-03-04 10:23:40.695,10
570,11842,1.04,-0.71,-1.06,42.8,2022-03-04 10:23:40.795,10
571,11862,0.52,-0.54,1.43,42.8,2022-03-04 10:23:40.893,10
572,11882,0.73,-0.76,-1.15,42.8,2022-03-04 10:23:40.994,10
573,11902,1.19,-0.52,1.25,42.8,2022-03-04 10:23:41.093,10
574,11926,1.1,-1.11,-0.62,43.6,2022-03-04 10:23:41.192,10
575,11946,0.69,-1.2,0.53,43.6,2022-03-04 10:23:41.291,10
576,11968,1.05,-1.2,-0.89,43.6,2022-03-04 10:23:41.399,10
577,11988,0.88,-0.93,-0.94,43.6,2022-03-04 10:23:41.498,10
578,12010,0.92,-1.46,-0.79,43.6,2022-03-04 10:23:41.598,10
579,12030,0.95,-0.97,-0.56,43.6,2022-03-04 10:23:41.697,10
580,12050,1.18,-1.03,-0.86,43.6,2022-03-04 10:23:41.797,10
581,12070,0.63,-0.74,-1.04,43.6,2022-03-04 10:23:41.897,10
582,12090,0.6,0.16,-0.79,43.6,2022-03-04 10:23:41.995,10
583,12110,-0.88,-0.42,0.44,43.6,2022-03-04 10:23:42.097,10
584,12134,0.57,-0.75,-0.64,43.6,2022-03-04 10:23:42.199,10
585,12154,0.35,-0.35,0.4,43.2,2022-03-04 10:23:42.293,10
586,12174,-0.79,-0.54,-0.9,43.2,2022-03-04 10:23:42.395,10
587,12194,0.92,-0.25,-0.59,43.2,2022-03-04 10:23:42.492,10
588,12216,0.35,0.25,0.54,43.2,2022-03-04 10:23:42.591,10
589,12236,-0.74,-0.29,1.01,43.2,2022-03-04 10:23:42.691,10
590,12258,-0.65,-0.31,-0.89,43.2,2022-03-04 10:23:42.799,10
591,12278,0.75,-0.53,0.67,43.2,2022-03-04 10:23:42.898,10
592,12298,1.18,-0.42,-1.05,43.2,2022-03-04 10:23:42.997,10
593,12318,-1.05,0.63,0.79,43.2,2022-03-04 10:23:43.099,10
594,12342,-0.63,0.34,-0.98,44.3,2022-03-04 10:23:43.196,10
595,12362,-0.54,0.44,-0.78,44.3,2022-03-04 10:23:43.296,10
596,12382,-0.6,-0.33,-1.16,44.3,2022-03-04 10:23:43.394,10
597,12402,-0.63,0.54,0.72,44.3,2022-03-04 10:23:43.494,10
598,12424,-1.03,0.4,0.63,44.3,2022-03-04 10:23:43.593,10
599,12444,1.2,-0.36,-0.43,44.3,2022-03-04 10:23:43.694,10
600,12464,0.43,-0.85,-0.92,44.3,2022-03-04 10:23:43.792,10
601,12484,0.85,-0.67,-0.55,44.3,2022-03-04 10:23:43.892,10
602,12506,0.36,-0.84,-0.7,44.3,2022-03-04 10:23:43.999,10
603,12524,0.64,-0.64,0.65,44.3,2022-03-04 10:23:44.090,10
604,12550,-0.9,-0.93,0.52,45.4,2022-03-04 10:23:44.199,10
605,12570,0.42,-0.67,-0.78,45.4,2022-03-04 10:23:44.298,10
606,12590,0.4,-0.74,-0.65,45.4,2022-03-04 10:23:44.397,4
607,12610,0.7,-1.52,-0.6,45.4,2022-03-04 10:23:44.496,4
608,12632,-0.53,-1.01,-0.8,45.4,2022-03-04 10:23:44.596,4
609,12652,-0.62,-0.99,-0.74,45.4,2022-03-04 10:23:44.695,4
610,12672,-0.49,-0.89,-0.72,45.4,2022-03-04 10:23:44.795,4
611,12692,0.99,-1.23,-0.74,45.4,2022-03-04 10:23:44.897,4
612,12712,0.65,-1.14,0.49,45.4,2022-03-04 10:23:44.995,4
613,12732,0.5,-1.21,-0.9,45.4,2022-03-04 10:23:45.093,4
614,12752,0.6,-1.31,-0.78,45.4,2022-03-04 10:23:45.191,4
615,12776,0.87,-1.2,1.32,45.4,2022-03-04 10:23:45.290,4
616,12798,0.78,-1.36,1.07,44.6,2022-03-04 10:23:45.399,4
617,12818,1.04,-1.46,-1.37,44.6,2022-03-04 10:23:45.499,4
618,12840,1.01,-1.41,-1.15,44.6,2022-03-04 10:23:45.598,4
619,12860,1.0,-1.89,0.85,44.6,2022-03-04 10:23:45.698,4
620,12880,0.96,-2.29,1.37,44.6,2022-03-04 10:23:45.796,4
621,12900,1.14,-2.02,-1.21,44.6,2022-03-04 10:23:45.896,4
622,12920,2.24,-2.42,1.57,44.6,2022-03-04 10:23:45.995,4
623,12940,-1.2,-2.02,-1.19,44.6,2022-03-04 10:23:46.095,4
624,12964,0.59,-2.08,-1.65,44.6,2022-03-04 10:23:46.194,4
625,12984,0.66,-1.89,0.67,41.4,2022-03-04 10:23:46.294,4
626,13004,-0.99,-1.74,0.86,41.4,2022-03-04 10:23:46.392,4
627,13024,0.52,-1.93,1.21,41.4,2022-03-04 10:23:46.492,4
628,13046,-1.02,-1.94,-1.01,41.4,2022-03-04 10:23:46.590,4
629,13066,0.94,-1.82,0.54,41.4,2022-03-04 10:23:46.692,4
630,13086,0.76,-1.89,0.64,41.4,2022-03-04 10:23:46.790,4
631,13108,0.82,-1.93,-1.04,41.4,2022-03-04 10:23:46.899,4
632,13128,0.91,-1.61,-0.8,41.4,2022-03-04 10:23:46.998,4
633,13148,0.9,-1.74,-0.69,41.4,2022-03-04 10:23:47.097,4
634,13172,0.57,-1.65,0.82,41.4,2022-03-04 10:23:47.196,4
635,13192,0.35,-1.66,-1.03,37.8,2022-03-04 10:23:47.296,4
636,13212,-0.46,-1.72,-0.93,37.8,2022-03-04 10:23:47.396,4
637,13232,0.66,-1.58,0.75,37.8,2022-03-04 10:23:47.494,4
638,13254,0.15,-1.58,0.41,37.8,2022-03-04 10:23:47.593,4
639,13274,0.32,-1.61,-0.7,37.8,2022-03-04 10:23:47.692,4
640,13294,0.32,-1.58,-1.09,37.8,2022-03-04 10:23:47.793,4
641,13314,0.68,-1.58,0.82,37.8,2022-03-04 10:23:47.892,4
642,13334,0.77,-1.51,0.49,37.8,2022-03-04 10:23:47.990,4
643,13354,0.63,-1.58,-0.76,37.8,2022-03-04 10:23:48.091,4
644,13380,0.72,-1.55,0.68,37.8,2022-03-04 10:23:48.198,4
645,13400,-0.39,-1.45,-0.82,33.5,2022-03-04 10:23:48.298,4
646,13420,0.68,-1.5,-0.59,33.5,2022-03-04 10:23:48.397,4
647,13440,0.79,-1.41,-0.54,33.5,2022-03-04 10:23:48.497,4
648,13462,-0.46,-1.52,-0.69,33.5,2022-03-04 10:23:48.596,4
649,13482,0.49,-1.46,-0.46,33.5,2022-03-04 10:23:48.695,4
650,13502,0.43,-1.49,0.5,33.5,2022-03-04 10:23:48.794,4
651,13522,0.44,-1.33,-1.21,33.5,2022-03-04 10:23:48.893,4
652,13542,0.37,-1.37,-1.05,33.5,2022-03-04 10:23:48.993,4
653,13562,0.45,-1.41,0.7,33.5,2022-03-04 10:23:49.092,4
654,13586,0.48,-1.58,0.82,33.5,2022-03-04 10:23:49.196,4
655,13606,0.49,-1.29,-0.84,29.5,2022-03-04 10:23:49.290,4
656,13626,0.24,-1.32,-1.29,29.5,2022-03-04 10:23:49.391,4
657,13648,0.55,-1.41,-0.84,29.5,2022-03-04 10:23:49.499,4
658,13670,0.58,-1.56,0.72,29.5,2022-03-04 10:23:49.598,4
659,13690,0.71,-1.62,0.6,29.5,2022-03-04 10:23:49.697,4
660,13710,0.35,-1.32,-0.82,29.5,2022-03-04 10:23:49.797,4
661,13730,-0.3,-1.43,-1.02,29.5,2022-03-04 10:23:49.896,4
662,13750,0.44,-1.64,0.42,29.5,2022-03-04 10:23:49.997,4
663,13770,0.62,-1.42,0.75,29.5,2022-03-04 10:23:50.094,4
664,13794,0.42,-1.49,0.69,29.5,2022-03-04 10:23:50.194,4
665,13814,0.44,-1.4,-1.03,24.1,2022-03-04 10:23:50.293,4
666,13834,-0.29,-1.34,-1.0,24.1,2022-03-04 10:23:50.392,4
667,13854,0.68,-1.43,0.46,24.1,2022-03-04 10:23:50.492,4
668,13876,0.64,-1.5,0.68,24.1,2022-03-04 10:23:50.592,4
669,13896,0.66,-1.55,0.47,24.1,2022-03-04 10:23:50.690,4
670,13916,0.29,-1.35,-0.52,24.1,2022-03-04 10:23:50.789,4
671,13938,0.29,-1.37,-0.79,24.1,2022-03-04 10:23:50.899,4
672,13958,0.43,-1.28,-0.78,24.1,2022-03-04 10:23:50.998,4
673,13976,0.2,-1.29,-0.65,24.1,2022-03-04 10:23:51.088,4
674,14002,0.59,-1.24,0.39,24.1,2022-03-04 10:23:51.196,4
675,14022,0.56,-1.27,0.36,18.7,2022-03-04 10:23:51.295,4
676,14042,0.54,-1.38,-0.33,18.7,2022-03-04 10:23:51.396,4
677,14062,0.4,-1.35,-0.88,18.7,2022-03-04 10:23:51.494,4
678,14084,-0.19,-1.21,-0.64,18.7,2022-03-04 10:23:51.594,4
679,14104,0.22,-1.18,-0.65,18.7,2022-03-04 10:23:51.693,4
680,14124,0.44,-1.18,0.2,18.7,2022-03-04 10:23:51.792,4
681,14144,0.66,-1.21,-0.4,18.7,2022-03-04 10:23:51.891,4
682,14164,0.54,-1.17,0.47,18.7,2022-03-04 10:23:51.990,4
683,14184,0.39,-1.2,-0.42,18.7,2022-03-04 10:23:52.090,4
684,14204,0.49,-1.24,-0.4,18.7,2022-03-04 10:23:52.189,4
685,14230,0.33,-1.14,-0.36,18.7,2022-03-04 10:23:52.298,4
686,14250,0.47,-1.1,-0.39,12.6,2022-03-04 10:23:52.398,4
687,14270,0.28,-0.93,-0.27,12.6,2022-03-04 10:23:52.498,4
688,14292,0.24,-0.77,-0.46,12.6,2022-03-04 10:23:52.596,4
689,14312,0.37,-0.76,-0.29,12.6,2022-03-04 10:23:52.696,4
690,14332,0.26,-0.69,-0.3,12.6,2022-03-04 10:23:52.795,4
691,14352,-0.14,-0.74,-0.29,12.6,2022-03-04 10:23:52.894,4
692,14372,0.16,-0.56,-0.36,12.6,2022-03-04 10:23:52.993,4
693,14392,0.35,-0.49,-0.19,12.6,2022-03-04 10:23:53.093,4
694,14416,0.32,-0.37,0.2,12.6,2022-03-04 10:23:53.191,4
695,14436,0.22,-0.3,-0.25,6.8,2022-03-04 10:23:53.292,4
696,14456,-0.16,-0.23,-0.36,6.8,2022-03-04 10:23:53.392,4
697,14476,-0.29,0.11,-0.25,6.8,2022-03-04 10:23:53.490,4
698,14498,0.2,0.17,-0.22,6.8,2022-03-04 10:23:53.589,4
699,14520,-0.11,0.19,-0.26,6.8,2022-03-04 10:23:53.698,4
700,14540,0.22,0.25,-0.23,6.8,2022-03-04 10:23:53.797,4
701,14560,-0.25,0.3,-0.2,6.8,2022-03-04 10:23:53.896,4
702,14580,-0.26,0.35,-0.2,6.8,2022-03-04 10:23:53.996,4
703,14600,-0.18,0.37,-0.3,6.8,2022-03-04 10:23:54.095,4
704,14624,-0.27,0.37,-0.24,6.8,2022-03-04 10:23:54.195,4
705,14644,0.16,0.38,-0.2,0.4,2022-03-04 10:23:54.294,4
706,14664,-0.24,0.52,-0.29,0.4,2022-03-04 10:23:54.393,4
707,14684,-0.31,0.9,-0.31,0.4,2022-03-04 10:23:54.492,4
708,14706,-0.2,1.18,-0.3,0.4,2022-03-04 10:23:54.591,4
709,14726,-0.29,1.38,-0.16,0.4,2022-03-04 10:23:54.691,4
710,14746,-0.29,1.38,-0.39,0.4,2022-03-04 10:23:54.790,4
711,14766,0.27,1.2,-0.26,0.4,2022-03-04 10:23:54.889,4
712,14786,-0.21,1.0,-0.3,0.4,2022-03-04 10:23:54.988,4
713,14806,-0.23,1.03,-0.22,0.4,2022-03-04 10:23:55.087,4
714,14832,-0.33,1.03,-0.24,1.8,2022-03-04 10:23:55.197,4
715,14852,-0.24,1.09,-0.26,1.8,2022-03-04 10:23:55.296,4
716,14872,-0.21,1.08,-0.19,1.8,2022-03-04 10:23:55.396,4
717,14892,0.6,1.03,-0.62,1.8,2022-03-04 10:23:55.494,4
718,14914,-0.37,1.02,-0.32,1.8,2022-03-04 10:23:55.595,4
719,14934,-0.26,1.04,-0.3,1.8,2022-03-04 10:23:55.693,4
720,14954,-0.15,1.03,-0.29,1.8,2022-03-04 10:23:55.792,4
721,14974,-0.28,1.02,-0.21,1.8,2022-03-04 10:23:55.891,4
722,14994,-0.28,1.02,-0.27,1.8,2022-03-04 10:23:55.992,4
723,15014,-0.32,1.0,-0.27,1.8,2022-03-04 10:23:56.090,4
724,15040,-0.2,1.01,-0.26,1.8,2022-03-04 10:23:56.199,0
725,15060,-0.27,0.94,-0.26,0.0,2022-03-04 10:23:56.299,0
726,15080,-0.25,0.93,-0.24,0.0,2022-03-04 10:23:56.398,0
727,15100,-0.26,0.87,-0.24,0.0,2022-03-04 10:23:56.499,0
728,15122,-0.19,0.87,-0.25,0.0,2022-03-04 10:23:56.597,0
729,15142,-0.27,0.89,-0.28,0.0,2022-03-04 10:23:56.696,0
730,15162,-0.24,0.77,-0.25,0.0,2022-03-04 10:23:56.794,0
731,15182,-0.34,0.82,-0.47,0.0,2022-03-04 10:23:56.894,0
732,15202,-0.17,0.76,-0.29,0.0,2022-03-04 10:23:56.994,0
733,15222,-0.26,0.75,-0.28,0.0,2022-03-04 10:23:57.093,0
734,15236,-0.25,0.8,-0.34,0.0,2022-03-04 10:23:57.157,0
