,LineNumber,Accel_X,Accel_Y,Accel_Z,Velocity,RealTime,Label
0,32,0.18,-0.25,-0.26,0.0,2022-03-04 10:27:29.993,0
1,52,0.3,-0.23,-0.26,0.0,2022-03-04 10:27:30.093,0
2,76,-0.14,-0.25,-0.25,0.0,2022-03-04 10:27:30.191,0
3,96,-0.15,-0.23,-0.21,0.0,2022-03-04 10:27:30.290,0
4,118,0.16,-0.24,-0.24,0.0,2022-03-04 10:27:30.399,0
5,138,-0.15,-0.23,-0.2,0.0,2022-03-04 10:27:30.499,0
6,160,0.12,-0.22,-0.22,0.0,2022-03-04 10:27:30.599,0
7,180,0.19,-0.22,-0.32,0.0,2022-03-04 10:27:30.697,0
8,200,0.14,-0.23,-0.19,0.0,2022-03-04 10:27:30.796,0
9,220,-0.14,-0.24,-0.26,0.0,2022-03-04 10:27:30.896,0
10,240,-0.16,-0.24,-0.23,0.0,2022-03-04 10:27:30.995,0
11,260,0.12,-0.21,-0.18,0.0,2022-03-04 10:27:31.094,0
12,284,-0.15,-0.21,-0.21,0.0,2022-03-04 10:27:31.194,0
13,304,-0.12,-0.27,-0.18,0.0,2022-03-04 10:27:31.293,0
14,324,0.14,-0.21,-0.29,0.0,2022-03-04 10:27:31.392,0
15,344,0.11,-0.21,-0.17,0.0,2022-03-04 10:27:31.492,0
16,366,0.19,-0.24,-0.2,0.0,2022-03-04 10:27:31.591,0
17,386,0.11,-0.21,-0.28,0.0,2022-03-04 10:27:31.691,0
18,408,-0.16,-0.22,-0.23,0.0,2022-03-04 10:27:31.799,0
19,428,0.12,-0.21,-0.25,0.0,2022-03-04 10:27:31.899,0
20,448,-0.2,-0.2,-0.27,0.0,2022-03-04 10:27:31.997,0
21,468,0.18,-0.2,-0.23,0.0,2022-03-04 10:27:32.099,0
22,492,-0.13,-0.2,-0.26,0.0,2022-03-04 10:27:32.196,0
23,512,-0.21,-0.21,-0.2,0.0,2022-03-04 10:27:32.295,0
24,532,-0.17,-0.22,-0.29,0.0,2022-03-04 10:27:32.395,0
25,552,-0.22,-0.2,0.49,0.0,2022-03-04 10:27:32.494,0
26,574,-0.17,-0.2,-0.4,0.0,2022-03-04 10:27:32.593,0
27,594,-0.22,-0.13,-0.31,0.0,2022-03-04 10:27:32.692,0
28,614,-0.22,-0.2,-0.24,0.0,2022-03-04 10:27:32.791,0
29,634,0.19,-0.18,-0.25,0.0,2022-03-04 10:27:32.891,0
30,654,0.2,-0.2,-0.26,0.0,2022-03-04 10:27:32.990,1
31,674,-0.24,-0.24,-0.41,0.0,2022-03-04 10:27:33.089,1
32,700,-0.27,-0.27,-0.34,0.0,2022-03-04 10:27:33.199,1
33,720,-0.39,0.43,-0.37,0.0,2022-03-04 10:27:33.299,1
34,740,0.32,0.46,-0.29,0.0,2022-03-04 10:27:33.397,1
35,760,-0.39,0.44,-0.34,0.0,2022-03-04 10:27:33.496,1
36,782,-0.36,0.69,-0.21,0.0,2022-03-04 10:27:33.595,1
37,802,-0.47,1.18,-0.41,0.0,2022-03-04 10:27:33.696,1
38,822,-0.48,1.4,-0.39,0.0,2022-03-04 10:27:33.795,1
39,842,-0.48,1.39,-0.71,0.0,2022-03-04 10:27:33.893,1
40,862,-0.51,1.51,-0.57,0.0,2022-03-04 10:27:33.993,1
41,882,-0.59,1.55,-0.7,0.0,2022-03-04 10:27:34.092,1
42,906,-0.67,1.55,-0.55,0.0,2022-03-04 10:27:34.192,1
43,926,-0.79,1.59,0.41,0.0,2022-03-04 10:27:34.291,1
44,946,-0.7,1.57,-0.68,0.0,2022-03-04 10:27:34.390,1
45,968,-0.59,1.57,-0.52,0.0,2022-03-04 10:27:34.499,1
46,990,-0.84,1.64,0.51,0.0,2022-03-04 10:27:34.599,1
47,1010,-0.67,1.7,-0.45,0.0,2022-03-04 10:27:34.697,1
48,1030,-0.67,1.73,0.49,0.0,2022-03-04 10:27:34.796,1
49,1050,-0.85,1.85,-0.45,0.0,2022-03-04 10:27:34.896,1
50,1070,-0.69,1.84,0.72,0.0,2022-03-04 10:27:34.997,1
51,1090,-0.79,1.74,-0.49,0.0,2022-03-04 10:27:35.094,1
52,1110,-1.05,1.88,0.84,0.0,2022-03-04 10:27:35.194,1
53,1134,-0.94,1.88,-0.82,7.9,2022-03-04 10:27:35.293,1
54,1154,-0.96,1.82,0.72,7.9,2022-03-04 10:27:35.393,1
55,1174,-0.74,1.86,-0.88,7.9,2022-03-04 10:27:35.492,1
56,1196,-0.53,1.84,-0.99,7.9,2022-03-04 10:27:35.591,1
57,1216,-0.8,2.01,-0.44,7.9,2022-03-04 10:27:35.690,1
58,1238,-0.9,1.91,0.67,7.9,2022-03-04 10:27:35.799,1
59,1256,-0.65,0.4,-0.79,7.9,2022-03-04 10:27:35.889,1
60,1278,-0.37,-0.28,-0.51,7.9,2022-03-04 10:27:35.998,1
61,1298,-0.4,1.21,0.4,7.9,2022-03-04 10:27:36.097,1
62,1318,-0.65,1.37,-0.68,7.9,2022-03-04 10:27:36.198,1
63,1342,-0.6,0.71,-0.47,12.6,2022-03-04 10:27:36.296,1
64,1362,0.29,0.28,-0.44,12.6,2022-03-04 10:27:36.395,1
65,1382,0.38,0.75,-0.26,12.6,2022-03-04 10:27:36.494,1
66,1404,-0.32,1.09,-0.29,12.6,2022-03-04 10:27:36.594,1
67,1424,-0.52,0.91,0.54,12.6,2022-03-04 10:27:36.693,1
68,1444,-0.44,0.6,-0.36,12.6,2022-03-04 10:27:36.793,1
69,1464,-0.44,0.72,-0.66,12.6,2022-03-04 10:27:36.891,1
70,1484,-0.32,0.73,-0.69,12.6,2022-03-04 10:27:36.991,1
71,1504,0.24,0.78,-1.02,12.6,2022-03-04 10:27:37.090,1
72,1528,-0.43,0.7,-0.94,15.5,2022-03-04 10:27:37.189,1
73,1548,-0.39,0.64,-0.46,15.5,2022-03-04 10:27:37.288,1
74,1570,-0.5,0.6,0.51,15.5,2022-03-04 10:27:37.397,1
75,1590,-0.52,0.61,0.54,15.5,2022-03-04 10:27:37.497,1
76,1612,-0.36,0.61,-0.53,15.5,2022-03-04 10:27:37.596,1
77,1632,-0.47,0.56,0.53,15.5,2022-03-04 10:27:37.695,1
78,1652,-0.37,0.63,-0.33,15.5,2022-03-04 10:27:37.794,1
79,1672,-0.74,0.84,-0.94,15.5,2022-03-04 10:27:37.894,1
80,1692,-1.02,0.98,-1.15,15.5,2022-03-04 10:27:37.993,1
81,1712,0.57,0.76,0.48,15.5,2022-03-04 10:27:38.092,1
82,1736,-0.8,0.56,0.71,19.4,2022-03-04 10:27:38.194,1
83,1756,0.59,0.71,-0.76,19.4,2022-03-04 10:27:38.291,1
84,1776,-0.83,0.64,-0.92,19.4,2022-03-04 10:27:38.390,1
85,1798,-0.75,0.43,-0.58,19.4,2022-03-04 10:27:38.499,1
86,1820,-0.61,0.64,-0.5,19.4,2022-03-04 10:27:38.599,1
87,1838,-0.77,0.69,-0.88,19.4,2022-03-04 10:27:38.688,1
88,1860,-0.73,0.55,-0.82,19.4,2022-03-04 10:27:38.799,1
89,1880,0.84,0.3,0.89,19.4,2022-03-04 10:27:38.896,1
90,1900,-0.62,0.49,-0.79,19.4,2022-03-04 10:27:38.996,1
91,1920,-0.64,-0.7,-0.96,19.4,2022-03-04 10:27:39.095,1
92,1944,-0.69,-1.13,-0.6,23.0,2022-03-04 10:27:39.195,1
93,1964,0.64,-1.19,-0.43,23.0,2022-03-04 10:27:39.294,1
94,1984,0.87,-1.12,0.45,23.0,2022-03-04 10:27:39.393,1
95,2004,0.55,-0.82,0.49,23.0,2022-03-04 10:27:39.492,1
96,2026,0.44,-0.88,-0.3,23.0,2022-03-04 10:27:39.591,1
97,2046,0.76,-1.39,0.58,23.0,2022-03-04 10:27:39.690,1
98,2068,0.42,-1.32,-0.74,23.0,2022-03-04 10:27:39.799,1
99,2088,0.32,-0.97,-0.89,23.0,2022-03-04 10:27:39.899,1
100,2106,-0.53,-0.92,-0.78,23.0,2022-03-04 10:27:39.988,1
101,2128,0.46,-1.19,0.92,23.0,2022-03-04 10:27:40.099,1
102,2152,0.67,-0.7,-0.52,23.0,2022-03-04 10:27:40.198,1
103,2172,-0.42,-0.52,-0.72,23.0,2022-03-04 10:27:40.297,1
104,2192,-0.84,1.38,-0.81,23.0,2022-03-04 10:27:40.395,1
105,2212,-1.0,1.52,0.75,23.0,2022-03-04 10:27:40.494,1
106,2234,0.84,-1.22,-0.97,23.0,2022-03-04 10:27:40.595,1
107,2254,0.93,1.83,0.65,23.0,2022-03-04 10:27:40.694,1
108,2274,-1.54,2.16,-1.71,23.0,2022-03-04 10:27:40.792,1
109,2294,-1.03,-0.67,-1.96,23.0,2022-03-04 10:27:40.891,1
110,2314,-0.66,0.97,1.29,23.0,2022-03-04 10:27:40.991,1
111,2334,0.8,0.88,1.67,23.0,2022-03-04 10:27:41.090,1
112,2358,0.65,1.01,0.85,26.3,2022-03-04 10:27:41.191,1
113,2380,-0.62,0.98,-1.37,26.3,2022-03-04 10:27:41.298,1
114,2400,-0.86,0.58,-0.99,26.3,2022-03-04 10:27:41.399,1
115,2420,0.85,0.72,1.59,26.3,2022-03-04 10:27:41.498,1
116,2442,-0.49,0.65,-0.85,26.3,2022-03-04 10:27:41.597,1
117,2462,-0.7,1.15,-0.92,26.3,2022-03-04 10:27:41.697,1
118,2482,-0.57,0.99,-1.33,26.3,2022-03-04 10:27:41.797,1
119,2502,0.79,0.68,0.65,26.3,2022-03-04 10:27:41.894,1
120,2522,0.76,0.87,1.14,26.3,2022-03-04 10:27:41.993,1
121,2542,-0.75,0.72,1.63,26.3,2022-03-04 10:27:42.096,1
122,2566,-0.78,0.8,1.26,29.9,2022-03-04 10:27:42.192,1
123,2586,0.97,0.98,1.31,29.9,2022-03-04 10:27:42.291,1
124,2606,-1.02,0.94,2.08,29.9,2022-03-04 10:27:42.397,1
125,2628,-0.93,0.56,-1.96,29.9,2022-03-04 10:27:42.499,1
126,2650,-1.0,1.19,-1.43,29.9,2022-03-04 10:27:42.599,1
127,2668,0.58,1.02,-1.87,29.9,2022-03-04 10:27:42.688,1
128,2690,-0.62,0.8,-0.93,29.9,2022-03-04 10:27:42.798,1
129,2710,-0.59,0.65,0.84,29.9,2022-03-04 10:27:42.898,1
130,2730,-0.54,0.58,-1.15,29.9,2022-03-04 10:27:42.996,1
131,2750,-0.98,0.28,0.55,29.9,2022-03-04 10:27:43.096,1
132,2774,-0.37,0.47,-0.83,33.5,2022-03-04 10:27:43.195,1
133,2794,-0.91,0.46,-0.87,33.5,2022-03-04 10:27:43.295,1
134,2814,-0.78,0.38,-0.83,33.5,2022-03-04 10:27:43.393,1
135,2834,-0.51,0.56,-0.95,33.5,2022-03-04 10:27:43.492,1
136,2856,0.63,0.55,-0.62,33.5,2022-03-04 10:27:43.591,1
137,2876,-0.72,0.63,0.51,33.5,2022-03-04 10:27:43.691,1
138,2896,0.59,0.34,-1.16,33.5,2022-03-04 10:27:43.790,1
139,2916,-0.55,-0.24,-0.49,33.5,2022-03-04 10:27:43.889,1
140,2936,-0.88,-0.37,0.75,33.5,2022-03-04 10:27:43.993,1
141,2958,0.7,-0.3,-1.01,33.5,2022-03-04 10:27:44.098,1
142,2982,0.74,-1.12,0.56,37.1,2022-03-04 10:27:44.197,1
143,3002,1.01,-1.01,-0.67,37.1,2022-03-04 10:27:44.297,1
144,3022,0.64,-1.07,-0.78,37.1,2022-03-04 10:27:44.396,1
145,3042,1.25,-1.31,-1.05,37.1,2022-03-04 10:27:44.495,1
146,3064,-0.79,-0.97,-1.1,37.1,2022-03-04 10:27:44.595,1
147,3084,-0.45,-1.18,-1.19,37.1,2022-03-04 10:27:44.697,1
148,3104,0.92,-1.45,1.04,37.1,2022-03-04 10:27:44.795,1
149,3124,0.83,-1.17,-0.66,37.1,2022-03-04 10:27:44.895,1
150,3144,0.66,-1.0,-1.18,37.1,2022-03-04 10:27:44.994,1
151,3164,0.99,-0.57,-0.88,37.1,2022-03-04 10:27:45.090,1
152,3190,-0.81,0.34,-1.01,37.1,2022-03-04 10:27:45.199,1
153,3210,0.47,0.4,-0.98,37.1,2022-03-04 10:27:45.299,1
154,3230,-1.42,-0.69,-1.06,37.1,2022-03-04 10:27:45.398,1
155,3250,-0.51,0.5,-0.76,37.1,2022-03-04 10:27:45.497,1
156,3272,-0.87,-0.44,-0.55,37.1,2022-03-04 10:27:45.598,1
157,3292,-1.65,-0.37,-1.21,37.1,2022-03-04 10:27:45.696,1
158,3312,1.06,-0.27,0.52,37.1,2022-03-04 10:27:45.796,1
159,3332,1.4,-0.52,-1.09,37.1,2022-03-04 10:27:45.895,1
160,3352,-0.9,-0.66,1.13,37.1,2022-03-04 10:27:45.994,1
161,3372,1.31,-0.62,-1.8,37.1,2022-03-04 10:27:46.094,1
162,3392,-1.01,-0.57,-0.79,37.1,2022-03-04 10:27:46.194,1
163,3416,1.15,-0.65,-1.06,39.2,2022-03-04 10:27:46.291,1
164,3436,-1.3,-0.28,0.96,39.2,2022-03-04 10:27:46.391,1
165,3456,0.91,-0.55,-0.85,39.2,2022-03-04 10:27:46.490,1
166,3480,-0.8,-0.38,-0.89,39.2,2022-03-04 10:27:46.599,1
167,3500,-0.95,-0.46,-0.94,39.2,2022-03-04 10:27:46.698,1
168,3520,-0.97,-0.7,-0.81,39.2,2022-03-04 10:27:46.799,1
169,3540,-0.5,-0.45,1.22,39.2,2022-03-04 10:27:46.897,1
170,3560,-0.97,-0.66,0.98,39.2,2022-03-04 10:27:46.996,1
171,3578,-0.74,-0.53,1.21,39.2,2022-03-04 10:27:47.087,1
172,3604,-0.94,-0.69,-1.23,41.4,2022-03-04 10:27:47.195,1
173,3624,0.58,-0.73,-1.31,41.4,2022-03-04 10:27:47.295,1
174,3644,-0.91,-0.67,0.87,41.4,2022-03-04 10:27:47.394,1
175,3664,-0.33,-0.54,-0.99,41.4,2022-03-04 10:27:47.493,1
176,3686,-0.94,-0.61,0.5,41.4,2022-03-04 10:27:47.593,1
177,3706,-0.93,-0.43,1.06,41.4,2022-03-04 10:27:47.692,1
178,3726,-1.28,-0.4,1.03,41.4,2022-03-04 10:27:47.792,1
179,3748,0.7,-0.53,-0.76,41.4,2022-03-04 10:27:47.899,1
180,3768,0.92,-0.51,-1.17,41.4,2022-03-04 10:27:47.999,1
181,3786,0.71,-0.62,-1.52,41.4,2022-03-04 10:27:48.088,1
182,3812,0.78,-0.67,1.21,43.9,2022-03-04 10:27:48.198,1
183,3832,1.61,-0.84,-1.33,43.9,2022-03-04 10:27:48.298,10
184,3852,1.16,-0.79,-1.53,43.9,2022-03-04 10:27:48.396,10
185,3872,0.92,-0.72,-1.08,43.9,2022-03-04 10:27:48.495,10
186,3894,0.73,-0.74,-0.68,43.9,2022-03-04 10:27:48.594,10
187,3914,1.06,-0.44,-1.15,43.9,2022-03-04 10:27:48.694,10
188,3934,0.63,-0.71,-1.0,43.9,2022-03-04 10:27:48.793,10
189,3954,0.94,-0.55,-0.87,43.9,2022-03-04 10:27:48.894,10
190,3974,0.73,-0.64,-0.89,43.9,2022-03-04 10:27:48.992,10
191,3994,1.3,-0.62,1.07,43.9,2022-03-04 10:27:49.093,10
192,4020,0.77,-0.72,0.91,45.4,2022-03-04 10:27:49.199,10
193,4038,0.74,-0.82,-0.69,45.4,2022-03-04 10:27:49.289,10
194,4060,0.55,-1.19,0.56,45.4,2022-03-04 10:27:49.399,10
195,4080,-0.61,-1.08,-0.89,45.4,2022-03-04 10:27:49.498,10
196,4102,0.58,-1.13,-0.92,45.4,2022-03-04 10:27:49.597,10
197,4122,-0.54,-0.93,-0.82,45.4,2022-03-04 10:27:49.696,10
198,4142,0.47,-0.84,0.79,45.4,2022-03-04 10:27:49.796,10
199,4162,-1.05,-1.1,-0.68,45.4,2022-03-04 10:27:49.896,10
200,4182,0.77,-1.15,-0.36,45.4,2022-03-04 10:27:49.995,10
201,4202,-0.7,-0.92,0.69,45.4,2022-03-04 10:27:50.094,10
202,4224,-0.73,-0.89,-0.65,45.7,2022-03-04 10:27:50.197,10
203,4246,-0.89,-0.96,-0.95,45.7,2022-03-04 10:27:50.292,10
204,4266,-0.49,-0.79,-0.54,45.7,2022-03-04 10:27:50.393,10
205,4286,-0.73,-0.89,0.74,45.7,2022-03-04 10:27:50.493,10
206,4310,-1.21,-0.78,-1.01,45.7,2022-03-04 10:27:50.599,10
207,4330,-0.79,-0.6,0.57,45.7,2022-03-04 10:27:50.699,10
208,4350,-1.21,-0.42,1.02,45.7,2022-03-04 10:27:50.798,10
209,4370,-0.8,0.29,0.73,45.7,2022-03-04 10:27:50.897,10
210,4390,-0.4,-0.38,-0.77,45.7,2022-03-04 10:27:50.996,10
211,4410,0.71,-0.27,-1.09,45.7,2022-03-04 10:27:51.098,10
212,4434,0.76,-0.38,1.13,46.4,2022-03-04 10:27:51.195,10
213,4454,-0.67,-0.45,-0.64,46.4,2022-03-04 10:27:51.295,10
214,4474,-0.49,-0.54,1.08,46.4,2022-03-04 10:27:51.393,10
215,4494,0.55,-0.58,-1.34,46.4,2022-03-04 10:27:51.494,10
216,4516,0.58,-0.74,0.78,46.4,2022-03-04 10:27:51.594,10
217,4536,0.62,-0.63,0.94,46.4,2022-03-04 10:27:51.691,10
218,4556,0.73,-0.49,-1.7,46.4,2022-03-04 10:27:51.791,10
219,4576,-0.95,-0.41,-0.67,46.4,2022-03-04 10:27:51.891,10
220,4598,0.81,-0.59,-1.42,46.4,2022-03-04 10:27:51.999,10
221,4616,0.45,-0.73,-0.54,46.4,2022-03-04 10:27:52.090,10
222,4642,0.52,-0.76,-0.52,47.5,2022-03-04 10:27:52.198,10
223,4662,0.45,-0.75,-0.53,47.5,2022-03-04 10:27:52.297,10
224,4682,0.54,-0.94,0.34,47.5,2022-03-04 10:27:52.397,10
225,4702,-0.34,-0.94,0.5,47.5,2022-03-04 10:27:52.495,4
226,4724,0.54,-0.74,-0.82,47.5,2022-03-04 10:27:52.595,4
227,4744,-0.46,-0.95,-0.64,47.5,2022-03-04 10:27:52.694,4
228,4764,-1.43,-1.71,-2.07,47.5,2022-03-04 10:27:52.794,4
229,4784,1.18,-1.85,1.03,47.5,2022-03-04 10:27:52.894,4
230,4804,-2.27,-1.78,1.46,47.5,2022-03-04 10:27:52.993,4
231,4824,0.88,-1.34,-2.37,47.5,2022-03-04 10:27:53.091,4
232,4848,0.69,-1.28,0.66,47.5,2022-03-04 10:27:53.190,4
233,4870,-0.7,-1.5,-0.58,46.8,2022-03-04 10:27:53.299,4
234,4890,0.61,-1.17,-0.75,46.8,2022-03-04 10:27:53.398,4
235,4910,0.82,-1.18,-0.81,46.8,2022-03-04 10:27:53.498,4
236,4930,0.55,-1.28,-0.61,46.8,2022-03-04 10:27:53.589,4
237,4952,0.79,-1.46,0.52,46.8,2022-03-04 10:27:53.697,4
238,4972,0.49,-1.56,0.61,46.8,2022-03-04 10:27:53.796,4
239,4992,0.54,-1.63,-0.52,46.8,2022-03-04 10:27:53.895,4
240,5012,0.96,-1.58,-0.5,46.8,2022-03-04 10:27:53.994,4
241,5030,0.64,-1.77,-0.58,46.8,2022-03-04 10:27:54.084,4
242,5056,0.74,-1.66,-0.79,46.8,2022-03-04 10:27:54.193,4
243,5076,0.45,-1.72,-0.93,44.6,2022-03-04 10:27:54.292,4
244,5096,0.4,-1.69,0.59,44.6,2022-03-04 10:27:54.392,4
245,5116,0.68,-1.5,-0.94,44.6,2022-03-04 10:27:54.490,4
246,5140,0.5,-1.83,0.37,44.6,2022-03-04 10:27:54.599,4
247,5160,0.42,-1.46,-0.61,44.6,2022-03-04 10:27:54.699,4
248,5180,0.87,-1.87,-1.0,44.6,2022-03-04 10:27:54.798,4
249,5200,0.61,-1.6,0.97,44.6,2022-03-04 10:27:54.899,4
250,5220,0.87,-1.73,-0.71,44.6,2022-03-04 10:27:54.997,4
251,5240,1.16,-1.54,-1.01,44.6,2022-03-04 10:27:55.097,4
252,5264,-0.8,-1.71,-0.75,44.6,2022-03-04 10:27:55.195,4
253,5284,1.21,-1.67,-0.43,41.4,2022-03-04 10:27:55.294,4
254,5304,0.91,-1.51,0.56,41.4,2022-03-04 10:27:55.394,4
255,5324,0.74,-1.58,-0.81,41.4,2022-03-04 10:27:55.494,4
256,5346,0.72,-1.56,-0.82,41.4,2022-03-04 10:27:55.595,4
257,5366,0.48,-1.5,0.55,41.4,2022-03-04 10:27:55.694,4
258,5386,0.63,-1.82,-0.57,41.4,2022-03-04 10:27:55.791,4
259,5406,0.67,-1.73,-0.78,41.4,2022-03-04 10:27:55.891,4
260,5428,0.81,-1.67,-0.48,41.4,2022-03-04 10:27:55.999,4
261,5446,0.94,-1.62,-0.89,41.4,2022-03-04 10:27:56.090,4
262,5472,0.97,-1.69,-1.05,41.4,2022-03-04 10:27:56.198,4
263,5492,0.86,-1.82,0.39,37.1,2022-03-04 10:27:56.297,4
264,5512,0.55,-1.78,-0.87,37.1,2022-03-04 10:27:56.396,4
265,5532,1.19,-1.71,0.45,37.1,2022-03-04 10:27:56.496,4
266,5554,0.6,-1.75,0.55,37.1,2022-03-04 10:27:56.595,4
267,5574,0.97,-1.99,-0.55,37.1,2022-03-04 10:27:56.694,4
268,5594,0.94,-1.88,0.75,37.1,2022-03-04 10:27:56.793,4
269,5614,0.81,-2.08,0.46,37.1,2022-03-04 10:27:56.893,4
270,5634,0.73,-1.88,-0.81,37.1,2022-03-04 10:27:56.994,4
271,5654,0.77,-1.78,-0.85,37.1,2022-03-04 10:27:57.091,4
272,5678,0.6,-1.79,-0.79,37.1,2022-03-04 10:27:57.194,4
273,5698,0.66,-1.71,-0.63,32.0,2022-03-04 10:27:57.290,7
274,5718,0.78,-1.61,-0.67,32.0,2022-03-04 10:27:57.389,7
275,5740,0.68,-1.35,-0.53,32.0,2022-03-04 10:27:57.498,7
276,5762,0.71,-1.12,0.41,32.0,2022-03-04 10:27:57.598,7
277,5782,0.8,-1.05,-0.63,32.0,2022-03-04 10:27:57.697,7
278,5802,0.83,-1.05,0.48,32.0,2022-03-04 10:27:57.796,7
279,5822,0.79,-0.85,-0.56,32.0,2022-03-04 10:27:57.895,7
280,5838,0.5,-0.9,-0.35,32.0,2022-03-04 10:27:57.975,7
281,5862,0.56,-0.77,-0.68,32.0,2022-03-04 10:27:58.094,7
282,5882,0.62,-0.46,0.48,32.0,2022-03-04 10:27:58.193,7
283,5906,0.74,0.15,-0.35,32.0,2022-03-04 10:27:58.292,7
284,5926,0.69,0.27,-0.32,27.0,2022-03-04 10:27:58.392,7
285,5946,0.69,0.33,-0.51,27.0,2022-03-04 10:27:58.491,7
286,5968,0.76,0.31,0.57,27.0,2022-03-04 10:27:58.591,7
287,5988,0.53,0.32,0.45,27.0,2022-03-04 10:27:58.690,7
288,6010,0.75,0.26,-0.57,27.0,2022-03-04 10:27:58.799,7
289,6030,0.75,0.35,-0.39,27.0,2022-03-04 10:27:58.898,7
290,6050,0.78,0.54,-0.29,27.0,2022-03-04 10:27:58.996,7
291,6070,0.92,0.44,-0.39,27.0,2022-03-04 10:27:59.096,7
292,6094,0.71,0.47,-0.4,27.0,2022-03-04 10:27:59.195,7
293,6114,0.68,0.47,-0.31,25.6,2022-03-04 10:27:59.295,7
294,6134,0.83,0.5,0.33,25.6,2022-03-04 10:27:59.394,7
295,6154,0.83,0.4,-0.65,25.6,2022-03-04 10:27:59.493,7
296,6176,0.87,0.43,0.27,25.6,2022-03-04 10:27:59.593,7
297,6196,0.66,0.42,-0.44,25.6,2022-03-04 10:27:59.692,7
298,6216,0.6,0.44,-0.54,25.6,2022-03-04 10:27:59.793,7
299,6236,-0.7,0.47,-0.56,25.6,2022-03-04 10:27:59.891,7
300,6256,-0.55,0.37,-0.45,25.6,2022-03-04 10:27:59.990,7
301,6276,-0.74,0.54,-0.57,25.6,2022-03-04 10:28:00.090,7
302,6302,-0.96,0.6,-0.82,25.6,2022-03-04 10:28:00.199,7
303,6322,-0.84,0.55,-0.39,24.1,2022-03-04 10:28:00.297,7
304,6342,-0.96,0.54,0.51,24.1,2022-03-04 10:28:00.397,7
305,6362,-1.08,0.47,-0.57,24.1,2022-03-04 10:28:00.498,7
306,6384,-1.17,0.37,-0.61,24.1,2022-03-04 10:28:00.595,7
307,6404,-1.37,0.3,0.57,24.1,2022-03-04 10:28:00.694,7
308,6424,-1.58,0.54,0.37,24.1,2022-03-04 10:28:00.794,7
309,6444,-2.01,0.35,-0.61,24.1,2022-03-04 10:28:00.893,7
310,6464,-2.37,0.33,-0.77,24.1,2022-03-04 10:28:00.994,7
311,6484,-2.68,0.12,0.33,24.1,2022-03-04 10:28:01.095,7
312,6506,-2.85,-0.19,-0.6,24.1,2022-03-04 10:28:01.194,7
313,6528,-2.78,-0.42,0.64,22.3,2022-03-04 10:28:01.290,7
314,6548,-2.96,-0.42,0.7,22.3,2022-03-04 10:28:01.389,7
315,6568,-2.62,0.28,-0.85,22.3,2022-03-04 10:28:01.489,7
316,6590,-2.58,-0.15,0.53,22.3,2022-03-04 10:28:01.589,7
317,6612,-3.7,-0.47,0.56,22.3,2022-03-04 10:28:01.698,7
318,6632,-3.85,-0.79,0.91,22.3,2022-03-04 10:28:01.796,7
319,6652,-3.76,-0.55,0.42,22.3,2022-03-04 10:28:01.895,7
320,6672,-3.87,-0.8,0.71,22.3,2022-03-04 10:28:01.995,7
321,6692,-4.26,-0.81,0.53,22.3,2022-03-04 10:28:02.096,7
322,6716,-4.08,-0.78,0.46,22.7,2022-03-04 10:28:02.193,7
323,6736,-4.17,-0.81,0.68,22.7,2022-03-04 10:28:02.292,7
324,6756,-4.25,-0.8,0.68,22.7,2022-03-04 10:28:02.392,7
325,6776,-3.68,-0.76,-0.44,22.7,2022-03-04 10:28:02.491,7
326,6798,-3.88,-0.87,0.58,22.7,2022-03-04 10:28:02.590,7
327,6818,-3.92,-0.9,0.72,22.7,2022-03-04 10:28:02.690,7
328,6838,-4.41,-1.0,0.69,22.7,2022-03-04 10:28:02.789,7
329,6858,-4.25,-1.34,0.67,22.7,2022-03-04 10:28:02.888,7
330,6880,-3.95,-1.32,0.45,22.7,2022-03-04 10:28:02.999,7
331,6898,-4.84,-1.29,0.82,22.7,2022-03-04 10:28:03.087,7
332,6924,-4.68,-1.51,-0.5,22.7,2022-03-04 10:28:03.196,7
333,6944,-4.05,-1.51,0.46,22.3,2022-03-04 10:28:03.299,7
334,6964,-4.36,-1.7,0.51,22.3,2022-03-04 10:28:03.395,7
335,6984,-4.48,-1.75,0.46,22.3,2022-03-04 10:28:03.494,7
336,7006,-4.02,-1.73,-0.69,22.3,2022-03-04 10:28:03.594,7
337,7026,-4.47,-2.03,-0.71,22.3,2022-03-04 10:28:03.692,7
338,7046,-4.12,-1.78,0.49,22.3,2022-03-04 10:28:03.792,7
339,7066,-4.03,-2.11,0.74,22.3,2022-03-04 10:28:03.891,7
340,7086,-3.86,-2.21,0.76,22.3,2022-03-04 10:28:03.990,7
341,7106,-4.16,-2.17,0.96,22.3,2022-03-04 10:28:04.090,7
342,7126,-3.88,-2.08,-0.64,22.3,2022-03-04 10:28:04.190,7
343,7152,-4.14,-2.11,1.18,22.3,2022-03-04 10:28:04.299,7
344,7172,-4.0,-1.96,-0.94,20.5,2022-03-04 10:28:04.399,7
345,7192,-3.25,-2.07,-0.64,20.5,2022-03-04 10:28:04.498,7
346,7214,-4.19,-2.08,0.78,20.5,2022-03-04 10:28:04.596,7
347,7234,-3.81,-2.27,0.92,20.5,2022-03-04 10:28:04.695,7
348,7254,-4.02,-2.19,-1.08,20.5,2022-03-04 10:28:04.794,7
349,7274,-3.58,-2.13,0.84,20.5,2022-03-04 10:28:04.893,7
350,7294,-3.87,-2.3,-0.46,20.5,2022-03-04 10:28:04.992,7
351,7314,-3.34,-2.19,-0.42,20.5,2022-03-04 10:28:05.092,7
352,7338,-3.23,-2.21,0.68,20.5,2022-03-04 10:28:05.191,7
353,7358,-3.38,-2.4,-0.74,16.6,2022-03-04 10:28:05.290,7
354,7378,-3.38,-2.4,-0.57,16.6,2022-03-04 10:28:05.389,7
355,7398,-3.27,-2.29,0.99,16.6,2022-03-04 10:28:05.489,7
356,7422,-3.38,-2.35,-0.55,16.6,2022-03-04 10:28:05.599,7
357,7442,-3.31,-2.12,-1.09,16.6,2022-03-04 10:28:05.698,7
358,7462,-3.33,-2.27,0.46,16.6,2022-03-04 10:28:05.797,7
359,7482,-3.45,-2.15,-0.81,16.6,2022-03-04 10:28:05.897,7
360,7502,-4.3,-2.06,1.28,16.6,2022-03-04 10:28:05.997,7
361,7522,-4.11,-2.03,1.74,16.6,2022-03-04 10:28:06.097,7
362,7546,-3.2,-1.93,-1.29,17.3,2022-03-04 10:28:06.197,7
363,7566,-3.31,-1.75,1.38,17.3,2022-03-04 10:28:06.294,7
364,7586,-2.96,-1.85,1.3,17.3,2022-03-04 10:28:06.392,7
365,7606,-3.3,-1.68,0.97,17.3,2022-03-04 10:28:06.492,7
366,7628,-2.09,-1.32,0.92,17.3,2022-03-04 10:28:06.591,7
367,7648,-1.73,-1.36,1.61,17.3,2022-03-04 10:28:06.691,7
368,7670,-1.91,-1.12,1.0,17.3,2022-03-04 10:28:06.799,7
369,7690,-1.41,-1.35,1.41,17.3,2022-03-04 10:28:06.899,7
370,7710,-1.38,-0.96,1.14,17.3,2022-03-04 10:28:06.999,7
371,7730,-1.55,-0.8,-1.49,17.3,2022-03-04 10:28:07.098,7
372,7754,-1.4,-0.87,-0.84,17.3,2022-03-04 10:28:07.196,7
373,7774,-1.04,-0.83,-0.59,15.5,2022-03-04 10:28:07.296,7
374,7794,-0.71,-0.85,-0.48,15.5,2022-03-04 10:28:07.395,7
375,7814,-0.89,-0.73,0.58,15.5,2022-03-04 10:28:07.496,7
376,7836,-0.66,-0.73,-0.46,15.5,2022-03-04 10:28:07.593,7
377,7856,-0.49,-0.82,-0.56,15.5,2022-03-04 10:28:07.692,7
378,7876,-0.57,-0.67,0.46,15.5,2022-03-04 10:28:07.792,7
379,7896,-0.67,-0.62,0.76,15.5,2022-03-04 10:28:07.891,7
380,7916,-0.68,-0.54,0.43,15.5,2022-03-04 10:28:07.991,7
381,7936,-0.75,-0.64,0.49,15.5,2022-03-04 10:28:08.090,7
382,7958,0.35,-0.62,0.42,15.5,2022-03-04 10:28:08.199,7
383,7982,0.53,-0.58,-0.68,16.2,2022-03-04 10:28:08.298,7
384,8002,0.87,-0.67,-0.67,16.2,2022-03-04 10:28:08.398,7
385,8022,0.91,-0.44,-0.47,16.2,2022-03-04 10:28:08.498,1
386,8044,0.59,-0.46,0.87,16.2,2022-03-04 10:28:08.597,1
387,8064,0.85,-0.36,0.25,16.2,2022-03-04 10:28:08.696,1
388,8084,0.96,-0.37,-0.96,16.2,2022-03-04 10:28:08.796,1
389,8104,1.44,-0.26,-0.99,16.2,2022-03-04 10:28:08.896,1
390,8124,1.22,0.29,-0.97,16.2,2022-03-04 10:28:08.993,1
391,8144,0.86,-0.19,0.75,16.2,2022-03-04 10:28:09.093,1
392,8164,1.21,-0.16,0.62,16.2,2022-03-04 10:28:09.195,1
393,8188,1.1,-0.36,-0.87,22.0,2022-03-04 10:28:09.291,1
394,8208,1.14,-0.58,-0.82,22.0,2022-03-04 10:28:09.393,1
395,8230,1.34,-0.39,0.75,22.0,2022-03-04 10:28:09.499,1
396,8252,1.2,0.32,-1.26,22.0,2022-03-04 10:28:09.598,1
397,8272,1.21,-0.25,-1.22,22.0,2022-03-04 10:28:09.698,1
398,8292,1.16,0.56,-0.75,22.0,2022-03-04 10:28:09.799,1
399,8312,1.23,0.31,1.04,22.0,2022-03-04 10:28:09.897,1
400,8332,1.27,0.26,-0.96,22.0,2022-03-04 10:28:09.995,1
401,8350,1.14,0.42,1.33,22.0,2022-03-04 10:28:10.085,1
402,8376,2.13,0.45,0.82,26.3,2022-03-04 10:28:10.195,1
403,8396,1.31,0.29,-0.6,26.3,2022-03-04 10:28:10.294,1
404,8416,1.28,-0.53,0.96,26.3,2022-03-04 10:28:10.392,1
405,8436,1.18,0.45,-0.91,26.3,2022-03-04 10:28:10.492,1
406,8458,1.99,-0.5,0.77,26.3,2022-03-04 10:28:10.591,1
407,8478,1.44,0.44,-1.02,26.3,2022-03-04 10:28:10.690,1
408,8500,1.35,0.45,1.3,26.3,2022-03-04 10:28:10.799,1
409,8520,1.05,-0.37,-1.03,26.3,2022-03-04 10:28:10.899,1
410,8538,1.12,-0.4,1.01,26.3,2022-03-04 10:28:10.988,1
411,8558,0.93,0.38,-1.04,26.3,2022-03-04 10:28:11.087,1
412,8584,1.14,-0.41,-0.63,29.2,2022-03-04 10:28:11.197,1
413,8604,1.49,-0.41,-1.54,29.2,2022-03-04 10:28:11.295,1
414,8624,1.41,-0.26,1.05,29.2,2022-03-04 10:28:11.399,1
415,8644,1.66,-0.33,1.03,29.2,2022-03-04 10:28:11.495,1
416,8666,1.01,0.14,-0.85,29.2,2022-03-04 10:28:11.594,1
417,8686,1.27,0.24,-0.9,29.2,2022-03-04 10:28:11.694,1
418,8706,1.16,-0.43,0.87,29.2,2022-03-04 10:28:11.793,1
419,8726,1.12,-0.47,0.92,29.2,2022-03-04 10:28:11.893,1
420,8746,1.24,-0.25,-1.4,29.2,2022-03-04 10:28:11.991,1
421,8766,1.05,-0.41,-0.9,29.2,2022-03-04 10:28:12.091,1
422,8792,0.97,-0.29,-1.39,32.0,2022-03-04 10:28:12.199,1
423,8812,0.94,-0.45,1.02,32.0,2022-03-04 10:28:12.298,1
424,8832,0.88,-0.28,0.85,32.0,2022-03-04 10:28:12.398,1
425,8852,1.18,0.27,-1.16,32.0,2022-03-04 10:28:12.497,1
426,8874,0.53,-0.33,-1.08,32.0,2022-03-04 10:28:12.599,1
427,8894,0.63,-0.28,1.09,32.0,2022-03-04 10:28:12.696,1
428,8914,-0.48,-0.4,-1.22,32.0,2022-03-04 10:28:12.795,1
429,8934,0.64,-0.44,0.98,32.0,2022-03-04 10:28:12.894,1
430,8954,0.56,-0.24,0.82,32.0,2022-03-04 10:28:12.994,1
431,8974,0.58,-0.27,-1.5,32.0,2022-03-04 10:28:13.095,1
432,8998,0.42,-0.28,-1.26,34.6,2022-03-04 10:28:13.192,1
433,9018,0.94,-0.38,-1.02,34.6,2022-03-04 10:28:13.293,1
434,9038,1.02,-0.39,-0.66,34.6,2022-03-04 10:28:13.392,1
435,9060,0.49,-0.52,-1.01,34.6,2022-03-04 10:28:13.499,1
436,9082,0.74,-0.33,-1.07,34.6,2022-03-04 10:28:13.599,1
437,9102,0.62,-0.26,0.95,34.6,2022-03-04 10:28:13.698,1
438,9122,0.9,-0.47,-0.86,34.6,2022-03-04 10:28:13.797,1
439,9142,0.66,-0.46,0.72,34.6,2022-03-04 10:28:13.897,1
440,9162,0.62,-0.35,-0.74,34.6,2022-03-04 10:28:13.996,1
441,9182,0.8,-0.32,-0.46,34.6,2022-03-04 10:28:14.096,1
442,9206,0.54,-0.95,-0.85,37.1,2022-03-04 10:28:14.196,1
443,9226,0.76,-1.43,0.47,37.1,2022-03-04 10:28:14.294,1
444,9246,-0.88,-1.47,-0.65,37.1,2022-03-04 10:28:14.393,1
445,9266,1.13,-1.51,-1.22,37.1,2022-03-04 10:28:14.495,1
446,9288,1.0,-1.24,0.55,37.1,2022-03-04 10:28:14.592,1
447,9308,0.58,-1.29,0.44,37.1,2022-03-04 10:28:14.691,1
448,9328,-1.09,-1.5,-0.96,37.1,2022-03-04 10:28:14.791,1
449,9348,0.67,-1.24,-0.58,37.1,2022-03-04 10:28:14.890,1
450,9370,1.0,-1.31,0.42,37.1,2022-03-04 10:28:14.998,1
451,9390,-0.85,-0.73,-1.39,37.1,2022-03-04 10:28:15.098,1
452,9414,1.15,-0.28,0.81,37.1,2022-03-04 10:28:15.197,1
453,9434,0.46,-0.29,0.66,37.1,2022-03-04 10:28:15.296,1
454,9454,0.86,0.5,-0.93,37.1,2022-03-04 10:28:15.396,1
455,9474,0.98,-0.71,-0.71,37.1,2022-03-04 10:28:15.495,1
456,9496,0.66,-0.56,0.65,37.1,2022-03-04 10:28:15.595,1
457,9516,1.04,-0.8,1.38,37.1,2022-03-04 10:28:15.695,1
458,9536,0.83,-0.47,1.77,37.1,2022-03-04 10:28:15.793,1
459,9556,-1.31,-0.54,1.04,37.1,2022-03-04 10:28:15.895,1
460,9576,0.84,-0.61,-1.47,37.1,2022-03-04 10:28:15.992,1
461,9596,1.24,-0.66,-1.2,37.1,2022-03-04 10:28:16.091,1
462,9622,1.04,-0.76,-1.43,39.2,2022-03-04 10:28:16.199,1
463,9642,1.25,-0.75,-1.39,39.2,2022-03-04 10:28:16.298,1
464,9662,-0.83,-0.65,-1.62,39.2,2022-03-04 10:28:16.398,1
465,9682,-1.25,-0.53,-1.21,39.2,2022-03-04 10:28:16.497,1
466,9704,1.36,-0.58,-1.69,39.2,2022-03-04 10:28:16.597,1
467,9724,-1.49,0.85,-2.01,39.2,2022-03-04 10:28:16.696,1
468,9744,1.61,0.82,1.87,39.2,2022-03-04 10:28:16.795,1
469,9764,-1.36,1.01,-1.76,39.2,2022-03-04 10:28:16.895,1
470,9784,1.35,0.99,-1.71,39.2,2022-03-04 10:28:16.996,1
471,9804,1.11,-0.63,2.07,39.2,2022-03-04 10:28:17.094,1
472,9828,-1.21,-0.56,1.45,42.1,2022-03-04 10:28:17.192,1
473,9848,1.83,0.54,-1.9,42.1,2022-03-04 10:28:17.293,1
474,9868,1.03,-0.91,-1.63,42.1,2022-03-04 10:28:17.391,1
475,9888,0.94,-0.42,1.47,42.1,2022-03-04 10:28:17.490,1
476,9910,1.41,0.5,-1.62,42.1,2022-03-04 10:28:17.589,1
477,9932,0.58,-0.68,-1.14,42.1,2022-03-04 10:28:17.698,1
478,9952,0.68,-0.61,1.18,42.1,2022-03-04 10:28:17.798,1
479,9972,0.76,-0.3,1.54,42.1,2022-03-04 10:28:17.896,1
480,9992,-1.05,-0.38,-1.59,42.1,2022-03-04 10:28:17.996,1
481,10010,0.7,-0.46,2.09,42.1,2022-03-04 10:28:18.086,1
482,10036,1.18,-0.4,1.88,43.9,2022-03-04 10:28:18.195,1
483,10056,1.35,-0.43,-1.24,43.9,2022-03-04 10:28:18.294,1
484,10076,-0.95,-0.76,1.93,43.9,2022-03-04 10:28:18.394,1
485,10096,0.34,-0.85,1.37,43.9,2022-03-04 10:28:18.493,10
486,10118,0.33,-0.86,0.81,43.9,2022-03-04 10:28:18.592,10
487,10138,0.87,-0.71,0.65,43.9,2022-03-04 10:28:18.693,10
488,10158,0.95,-0.76,-1.17,43.9,2022-03-04 10:28:18.790,10
489,10180,0.73,-0.81,-1.09,43.9,2022-03-04 10:28:18.899,10
490,10200,1.37,-1.43,-0.82,43.9,2022-03-04 10:28:18.998,10
491,10220,0.78,-1.39,-0.55,43.9,2022-03-04 10:28:19.098,10
492,10244,0.9,-1.28,0.66,45.4,2022-03-04 10:28:19.198,10
493,10264,0.47,-1.4,0.85,45.4,2022-03-04 10:28:19.296,10
494,10284,1.13,-1.23,-0.64,45.4,2022-03-04 10:28:19.396,10
495,10304,1.13,-1.22,-0.63,45.4,2022-03-04 10:28:19.495,10
496,10326,0.91,-1.26,-0.75,45.4,2022-03-04 10:28:19.594,10
497,10346,1.11,-1.31,-1.29,45.4,2022-03-04 10:28:19.695,10
498,10366,0.76,-1.29,-0.71,45.4,2022-03-04 10:28:19.794,10
499,10386,0.55,-1.24,0.55,45.4,2022-03-04 10:28:19.892,10
500,10406,0.65,-1.3,-1.09,45.4,2022-03-04 10:28:19.993,10
501,10426,0.55,-0.75,0.7,45.4,2022-03-04 10:28:20.097,10
502,10452,0.59,-0.73,-0.62,45.4,2022-03-04 10:28:20.199,10
503,10472,0.73,-1.01,0.49,44.6,2022-03-04 10:28:20.299,10
504,10492,0.76,-0.86,-1.08,44.6,2022-03-04 10:28:20.399,10
505,10512,0.7,-0.55,-0.7,44.6,2022-03-04 10:28:20.498,10
506,10534,0.87,-0.74,0.99,44.6,2022-03-04 10:28:20.597,10
507,10554,0.62,-0.65,-0.79,44.6,2022-03-04 10:28:20.696,10
508,10574,0.86,-0.71,-1.05,44.6,2022-03-04 10:28:20.795,10
509,10594,1.02,-0.73,-0.49,44.6,2022-03-04 10:28:20.895,10
510,10614,0.93,-0.53,0.79,44.6,2022-03-04 10:28:20.994,10
511,10634,0.75,-0.7,-0.69,44.6,2022-03-04 10:28:21.098,10
512,10658,-0.7,-0.65,-1.29,45.7,2022-03-04 10:28:21.194,10
513,10678,0.96,-0.91,-1.02,45.7,2022-03-04 10:28:21.291,10
514,10698,0.77,-0.62,0.65,45.7,2022-03-04 10:28:21.393,10
515,10718,-0.83,-0.65,-0.79,45.7,2022-03-04 10:28:21.490,10
516,10742,0.84,-0.65,1.11,45.7,2022-03-04 10:28:21.599,10
517,10760,0.74,-0.55,0.54,45.7,2022-03-04 10:28:21.689,10
518,10782,0.75,-0.52,0.52,45.7,2022-03-04 10:28:21.798,10
519,10802,0.66,-0.48,-0.92,45.7,2022-03-04 10:28:21.897,10
520,10822,-1.08,-0.75,-0.7,45.7,2022-03-04 10:28:21.996,4
521,10842,0.71,-1.01,-0.82,45.7,2022-03-04 10:28:22.096,4
522,10866,-0.93,-1.21,-0.76,47.2,2022-03-04 10:28:22.195,4
523,10886,-0.69,-1.06,0.52,47.2,2022-03-04 10:28:22.295,4
524,10906,-0.38,-1.08,-0.3,47.2,2022-03-04 10:28:22.393,4
525,10926,0.43,-1.22,-0.67,47.2,2022-03-04 10:28:22.492,4
526,10948,0.7,-1.18,-0.8,47.2,2022-03-04 10:28:22.592,4
527,10968,0.49,-1.02,-0.88,47.2,2022-03-04 10:28:22.695,4
528,10988,-0.31,-1.33,-1.12,47.2,2022-03-04 10:28:22.792,4
529,11010,-0.34,-1.39,-0.49,47.2,2022-03-04 10:28:22.899,4
530,11030,0.68,-1.28,0.6,47.2,2022-03-04 10:28:22.999,4
531,11050,0.35,-1.39,0.94,47.2,2022-03-04 10:28:23.098,4
532,11074,0.4,-1.31,-0.61,47.2,2022-03-04 10:28:23.198,4
533,11094,0.71,-1.56,0.5,46.8,2022-03-04 10:28:23.296,4
534,11114,0.65,-1.48,-0.53,46.8,2022-03-04 10:28:23.396,4
535,11134,0.78,-1.62,-0.87,46.8,2022-03-04 10:28:23.495,4
536,11156,0.34,-1.57,-0.92,46.8,2022-03-04 10:28:23.594,4
537,11176,0.43,-1.46,-0.49,46.8,2022-03-04 10:28:23.694,4
538,11196,0.47,-1.44,-0.38,46.8,2022-03-04 10:28:23.793,4
539,11216,0.38,-1.39,0.54,46.8,2022-03-04 10:28:23.892,4
540,11236,0.4,-1.49,0.73,46.8,2022-03-04 10:28:23.991,4
541,11256,-1.17,-1.72,-0.62,46.8,2022-03-04 10:28:24.091,4
542,11280,-0.79,-1.65,0.68,46.8,2022-03-04 10:28:24.191,4
543,11302,0.7,-1.67,0.87,44.6,2022-03-04 10:28:24.299,4
544,11322,0.6,-1.8,-0.8,44.6,2022-03-04 10:28:24.399,4
545,11342,0.46,-1.69,0.34,44.6,2022-03-04 10:28:24.498,4
546,11364,0.5,-1.84,0.48,44.6,2022-03-04 10:28:24.597,4
547,11384,0.64,-1.65,-0.54,44.6,2022-03-04 10:28:24.697,4
548,11404,0.61,-1.7,-0.57,44.6,2022-03-04 10:28:24.796,4
549,11424,0.63,-1.71,-0.49,44.6,2022-03-04 10:28:24.895,4
550,11444,1.2,-1.71,-0.29,44.6,2022-03-04 10:28:24.994,4
551,11464,0.67,-1.84,-0.84,44.6,2022-03-04 10:28:25.093,4
552,11488,1.0,-1.9,-0.6,44.6,2022-03-04 10:28:25.192,4
553,11508,1.66,-2.28,-0.61,41.8,2022-03-04 10:28:25.292,4
554,11528,2.14,-2.4,0.59,41.8,2022-03-04 10:28:25.392,4
555,11548,-1.57,-2.43,0.81,41.8,2022-03-04 10:28:25.490,4
556,11570,2.08,-2.4,-1.15,41.8,2022-03-04 10:28:25.589,4
557,11590,0.63,-2.17,-1.23,41.8,2022-03-04 10:28:25.690,4
558,11612,0.69,-1.86,0.74,41.8,2022-03-04 10:28:25.798,4
559,11632,1.56,-2.26,-0.91,41.8,2022-03-04 10:28:25.898,4
560,11652,1.32,-2.37,-1.04,41.8,2022-03-04 10:28:25.996,4
561,11672,1.83,-2.25,-1.15,41.8,2022-03-04 10:28:26.097,4
562,11696,2.12,-2.63,-1.14,41.8,2022-03-04 10:28:26.195,4
563,11716,-0.88,-2.19,1.14,37.8,2022-03-04 10:28:26.294,4
564,11736,1.5,-2.61,-1.19,37.8,2022-03-04 10:28:26.394,4
565,11756,2.16,-2.4,0.88,37.8,2022-03-04 10:28:26.493,4
566,11778,-2.51,-2.09,-1.84,37.8,2022-03-04 10:28:26.592,4
567,11798,1.85,-2.28,-0.93,37.8,2022-03-04 10:28:26.691,4
568,11818,1.26,-1.84,1.03,37.8,2022-03-04 10:28:26.791,4
569,11838,0.96,-1.97,-1.34,37.8,2022-03-04 10:28:26.890,4
570,11858,1.03,-2.07,-1.37,37.8,2022-03-04 10:28:26.989,4
571,11878,1.79,-2.34,0.67,37.8,2022-03-04 10:28:27.089,4
572,11904,-1.88,-1.98,0.63,37.8,2022-03-04 10:28:27.199,4
573,11922,1.87,-2.17,-0.99,32.8,2022-03-04 10:28:27.288,4
574,11944,0.53,-1.97,0.87,32.8,2022-03-04 10:28:27.396,4
575,11964,0.73,-1.61,-0.68,32.8,2022-03-04 10:28:27.495,4
576,11986,0.51,-1.83,-0.98,32.8,2022-03-04 10:28:27.594,4
577,12006,0.49,-1.57,0.65,32.8,2022-03-04 10:28:27.696,4
578,12026,0.66,-1.53,-0.61,32.8,2022-03-04 10:28:27.793,4
579,12046,0.39,-1.53,-0.42,32.8,2022-03-04 10:28:27.894,4
580,12066,0.66,-1.47,-0.94,32.8,2022-03-04 10:28:27.993,4
581,12086,-0.3,-1.49,-0.73,32.8,2022-03-04 10:28:28.091,4
582,12110,0.36,-1.46,0.23,32.8,2022-03-04 10:28:28.190,4
583,12130,0.6,-1.42,0.41,28.1,2022-03-04 10:28:28.290,4
584,12152,0.37,-1.37,-0.52,28.1,2022-03-04 10:28:28.399,4
585,12172,0.29,-1.33,-0.53,28.1,2022-03-04 10:28:28.499,4
586,12194,0.46,-1.47,0.47,28.1,2022-03-04 10:28:28.599,4
587,12214,0.39,-1.23,-0.5,28.1,2022-03-04 10:28:28.699,4
588,12234,-0.27,-1.15,-0.81,28.1,2022-03-04 10:28:28.796,4
589,12254,-0.26,-1.3,0.32,28.1,2022-03-04 10:28:28.895,4
590,12274,0.5,-1.22,0.39,28.1,2022-03-04 10:28:28.995,4
591,12294,0.44,-1.14,-0.47,28.1,2022-03-04 10:28:29.094,4
592,12318,0.21,-1.24,-0.46,28.1,2022-03-04 10:28:29.194,4
593,12338,0.27,-1.22,-0.43,23.0,2022-03-04 10:28:29.292,4
594,12358,0.38,-1.07,-0.27,23.0,2022-03-04 10:28:29.391,4
595,12378,0.36,-1.1,-0.41,23.0,2022-03-04 10:28:29.490,4
596,12400,-0.29,-1.11,-0.58,23.0,2022-03-04 10:28:29.590,4
597,12420,-0.27,-1.15,0.31,23.0,2022-03-04 10:28:29.689,4
598,12440,0.28,-1.11,-0.54,23.0,2022-03-04 10:28:29.788,4
599,12460,0.28,-1.2,-0.32,23.0,2022-03-04 10:28:29.888,4
600,12482,0.45,-1.04,0.44,23.0,2022-03-04 10:28:29.998,4
601,12502,0.3,-1.07,-0.49,23.0,2022-03-04 10:28:30.099,4
602,12522,-0.32,-1.03,-0.59,23.0,2022-03-04 10:28:30.199,4
603,12546,0.54,-0.94,-0.35,23.0,2022-03-04 10:28:30.295,4
604,12566,0.31,-0.95,-0.33,18.0,2022-03-04 10:28:30.395,4
605,12586,-0.32,-0.99,-0.29,18.0,2022-03-04 10:28:30.493,4
606,12608,-0.37,-0.98,-0.43,18.0,2022-03-04 10:28:30.592,4
607,12628,0.23,-0.86,-0.44,18.0,2022-03-04 10:28:30.692,4
608,12648,0.49,-0.94,0.24,18.0,2022-03-04 10:28:30.791,4
609,12668,0.31,-0.93,-0.41,18.0,2022-03-04 10:28:30.890,4
610,12688,-0.45,-0.88,-0.61,18.0,2022-03-04 10:28:30.990,4
611,12710,-0.21,-0.79,-0.5,18.0,2022-03-04 10:28:31.099,4
612,12734,0.17,-0.76,0.39,18.0,2022-03-04 10:28:31.199,4
613,12754,0.37,-0.84,-0.38,12.6,2022-03-04 10:28:31.298,4
614,12774,0.22,-0.68,-0.37,12.6,2022-03-04 10:28:31.397,4
615,12794,0.2,-0.52,-0.27,12.6,2022-03-04 10:28:31.497,4
616,12816,-0.11,-0.12,-0.26,12.6,2022-03-04 10:28:31.597,4
617,12836,-0.21,0.13,-0.25,12.6,2022-03-04 10:28:31.694,4
618,12856,-0.21,0.12,-0.2,12.6,2022-03-04 10:28:31.794,4
619,12874,-0.22,0.12,-0.23,12.6,2022-03-04 10:28:31.883,4
620,12896,0.21,0.16,-0.26,12.6,2022-03-04 10:28:31.992,4
621,12916,-0.25,0.21,-0.32,12.6,2022-03-04 10:28:32.092,4
622,12940,-0.17,0.16,-0.19,12.6,2022-03-04 10:28:32.190,4
623,12960,-0.18,0.21,-0.3,8.3,2022-03-04 10:28:32.290,4
624,12980,0.15,0.19,-0.23,8.3,2022-03-04 10:28:32.389,4
625,13000,0.13,0.21,0.2,8.3,2022-03-04 10:28:32.488,4
626,13022,-0.19,0.19,-0.17,8.3,2022-03-04 10:28:32.588,4
627,13044,-0.24,0.56,-0.18,8.3,2022-03-04 10:28:32.699,4
628,13064,-0.31,1.09,-0.16,8.3,2022-03-04 10:28:32.797,4
629,13084,-0.28,1.53,0.19,8.3,2022-03-04 10:28:32.897,4
630,13104,-0.22,1.66,-0.27,8.3,2022-03-04 10:28:32.996,4
631,13124,-0.31,1.62,-0.35,8.3,2022-03-04 10:28:33.096,4
632,13148,-0.26,1.21,-0.22,8.3,2022-03-04 10:28:33.193,4
633,13168,-0.22,1.11,-0.19,6.1,2022-03-04 10:28:33.293,4
634,13188,-0.31,1.32,-0.17,6.1,2022-03-04 10:28:33.391,4
635,13208,-0.23,1.26,-0.35,6.1,2022-03-04 10:28:33.493,4
636,13230,-0.2,1.26,-0.27,6.1,2022-03-04 10:28:33.591,4
637,13250,-0.21,1.26,-0.23,6.1,2022-03-04 10:28:33.690,4
638,13272,-0.34,1.22,-0.22,6.1,2022-03-04 10:28:33.799,4
639,13292,-0.26,1.29,-0.22,6.1,2022-03-04 10:28:33.899,4
640,13312,-0.24,1.19,-0.19,6.1,2022-03-04 10:28:33.998,4
641,13332,-0.18,1.23,-0.33,6.1,2022-03-04 10:28:34.097,4
642,13356,-0.29,1.22,-0.22,6.1,2022-03-04 10:28:34.197,4
643,13376,-0.29,1.19,-0.23,5.8,2022-03-04 10:28:34.298,4
644,13396,-0.21,1.18,-0.25,5.8,2022-03-04 10:28:34.395,4
645,13416,-0.24,1.15,-0.23,5.8,2022-03-04 10:28:34.497,4
646,13438,-0.31,1.18,0.18,5.8,2022-03-04 10:28:34.595,4
647,13458,-0.22,1.17,-0.29,5.8,2022-03-04 10:28:34.692,4
648,13478,-0.24,1.14,-0.21,5.8,2022-03-04 10:28:34.792,4
649,13498,-0.21,1.14,-0.26,5.8,2022-03-04 10:28:34.891,4
650,13518,-0.25,1.11,-0.27,5.8,2022-03-04 10:28:34.990,4
651,13538,-0.21,1.14,-0.29,5.8,2022-03-04 10:28:35.089,4
652,13564,-0.21,1.1,-0.25,5.8,2022-03-04 10:28:35.199,4
653,13584,-0.22,1.1,-0.31,0.4,2022-03-04 10:28:35.298,4
654,13604,-0.27,1.07,-0.25,0.4,2022-03-04 10:28:35.399,4
655,13624,-0.2,1.08,-0.25,0.4,2022-03-04 10:28:35.496,4
656,13646,-0.26,1.05,-0.22,0.4,2022-03-04 10:28:35.595,4
657,13666,-0.25,1.05,-0.3,0.4,2022-03-04 10:28:35.695,4
658,13686,-0.25,1.2,-0.26,0.4,2022-03-04 10:28:35.794,4
659,13706,-0.16,1.0,-0.38,0.4,2022-03-04 10:28:35.894,4
660,13726,-0.21,0.98,-0.32,0.4,2022-03-04 10:28:35.994,4
661,13746,-0.2,0.98,-0.24,0.4,2022-03-04 10:28:36.092,4
662,13770,-0.19,0.95,-0.27,0.4,2022-03-04 10:28:36.191,0
663,13790,-0.21,0.93,-0.23,0.0,2022-03-04 10:28:36.290,0
664,13812,-0.23,0.96,-0.25,0.0,2022-03-04 10:28:36.399,0
665,13832,-0.28,0.91,-0.37,0.0,2022-03-04 10:28:36.499,0
666,13854,-0.17,0.92,-0.29,0.0,2022-03-04 10:28:36.598,0
667,13874,-0.25,0.83,-0.28,0.0,2022-03-04 10:28:36.698,0
668,13894,-0.24,0.74,-0.27,0.0,2022-03-04 10:28:36.798,0
669,13914,-0.17,0.69,-0.3,0.0,2022-03-04 10:28:36.896,0
670,13934,-0.17,0.64,-0.27,0.0,2022-03-04 10:28:36.998,0
671,13954,-0.17,0.57,-0.27,0.0,2022-03-04 10:28:37.097,0
672,13970,-0.15,0.53,-0.28,0.0,2022-03-04 10:28:37.168,0
