,LineNumber,Accel_X,Accel_Y,Accel_Z,Velocity,RealTime,Label
0,26,0.16,0.07,-0.22,0.0,2022-03-04 10:25:04.294,0
1,46,-0.15,0.06,-0.21,0.0,2022-03-04 10:25:04.393,0
2,66,-0.2,0.08,-0.24,0.0,2022-03-04 10:25:04.492,0
3,88,-0.17,0.11,-0.23,0.0,2022-03-04 10:25:04.591,0
4,108,0.13,0.06,0.18,0.0,2022-03-04 10:25:04.691,0
5,128,-0.16,0.09,-0.22,0.0,2022-03-04 10:25:04.790,0
6,148,0.15,0.07,-0.26,0.0,2022-03-04 10:25:04.890,0
7,168,-0.16,0.07,-0.25,0.0,2022-03-04 10:25:04.989,0
8,190,-0.13,0.09,-0.23,0.0,2022-03-04 10:25:05.098,0
9,208,-0.24,-0.09,-0.21,0.0,2022-03-04 10:25:05.187,0
10,234,-0.14,0.1,0.23,0.0,2022-03-04 10:25:05.296,0
11,254,-0.2,0.08,-0.26,0.0,2022-03-04 10:25:05.397,0
12,274,0.11,0.08,-0.32,0.0,2022-03-04 10:25:05.495,0
13,296,0.14,0.12,-0.29,0.0,2022-03-04 10:25:05.594,0
14,316,-0.21,-0.08,-0.22,0.0,2022-03-04 10:25:05.693,0
15,336,0.15,0.09,-0.23,0.0,2022-03-04 10:25:05.793,0
16,356,-0.22,0.06,-0.31,0.0,2022-03-04 10:25:05.892,0
17,376,-0.1,-0.07,-0.3,0.0,2022-03-04 10:25:05.992,0
18,396,-0.18,0.07,-0.24,0.0,2022-03-04 10:25:06.090,0
19,416,-0.24,0.11,-0.27,0.0,2022-03-04 10:25:06.190,0
20,440,-0.24,0.06,-0.3,0.0,2022-03-04 10:25:06.289,0
21,462,0.17,0.15,-0.35,0.0,2022-03-04 10:25:06.398,0
22,482,0.27,0.21,-0.49,0.0,2022-03-04 10:25:06.498,0
23,504,-0.33,0.11,-0.31,0.0,2022-03-04 10:25:06.597,0
24,524,0.28,0.13,-0.28,0.0,2022-03-04 10:25:06.696,0
25,544,-0.2,-0.14,-0.33,0.0,2022-03-04 10:25:06.795,0
26,564,-0.25,-0.2,-0.41,0.0,2022-03-04 10:25:06.894,0
27,584,-0.13,-0.09,-0.32,0.0,2022-03-04 10:25:06.994,0
28,604,0.14,0.08,-0.23,0.0,2022-03-04 10:25:07.093,0
29,624,-0.23,0.12,-0.22,0.0,2022-03-04 10:25:07.194,0
30,648,-0.19,0.08,-0.22,0.0,2022-03-04 10:25:07.291,0
31,668,-0.21,0.08,-0.24,0.0,2022-03-04 10:25:07.391,0
32,688,0.13,0.08,-0.27,0.0,2022-03-04 10:25:07.490,0
33,710,-0.18,0.1,-0.19,0.0,2022-03-04 10:25:07.590,0
34,730,-0.18,0.12,-0.26,0.0,2022-03-04 10:25:07.690,0
35,752,-0.13,0.08,-0.24,0.0,2022-03-04 10:25:07.799,0
36,770,-0.2,-0.09,-0.28,0.0,2022-03-04 10:25:07.887,0
37,792,0.13,0.07,-0.29,0.0,2022-03-04 10:25:07.996,0
38,812,-0.2,-0.07,-0.24,0.0,2022-03-04 10:25:08.097,0
39,836,-0.14,0.07,-0.22,0.0,2022-03-04 10:25:08.195,0
40,856,0.17,0.08,-0.27,0.0,2022-03-04 10:25:08.294,0
41,876,0.15,-0.1,0.23,0.0,2022-03-04 10:25:08.393,0
42,896,-0.13,0.1,-0.18,0.0,2022-03-04 10:25:08.494,0
43,918,0.19,0.11,-0.25,0.0,2022-03-04 10:25:08.592,0
44,938,-0.24,0.11,-0.26,0.0,2022-03-04 10:25:08.691,0
45,958,-0.2,-0.08,-0.33,0.0,2022-03-04 10:25:08.790,0
46,978,0.16,-0.09,-0.24,0.0,2022-03-04 10:25:08.890,0
47,998,-0.11,-0.08,-0.25,0.0,2022-03-04 10:25:08.989,0
48,1018,0.15,0.11,-0.28,0.0,2022-03-04 10:25:09.090,0
49,1044,-0.22,0.07,-0.28,0.0,2022-03-04 10:25:09.199,0
50,1064,-0.2,0.09,-0.22,0.0,2022-03-04 10:25:09.296,0
51,1084,0.13,-0.07,-0.22,0.0,2022-03-04 10:25:09.396,0
52,1104,-0.21,0.09,-0.19,0.0,2022-03-04 10:25:09.495,0
53,1126,0.14,-0.07,-0.25,0.0,2022-03-04 10:25:09.595,0
54,1146,0.16,-0.07,-0.27,0.0,2022-03-04 10:25:09.694,0
55,1166,0.16,0.08,-0.26,0.0,2022-03-04 10:25:09.793,0
56,1186,-0.2,-0.08,-0.2,0.0,2022-03-04 10:25:09.892,0
57,1206,-0.24,0.08,-0.29,0.0,2022-03-04 10:25:09.991,0
58,1226,-0.18,0.09,-0.31,0.0,2022-03-04 10:25:10.091,0
59,1246,-0.18,-0.08,-0.22,0.0,2022-03-04 10:25:10.190,0
60,1272,0.16,0.12,0.25,0.0,2022-03-04 10:25:10.299,0
61,1290,-0.21,0.1,-0.25,0.0,2022-03-04 10:25:10.388,0
62,1312,0.12,0.09,-0.29,0.0,2022-03-04 10:25:10.499,0
63,1334,0.13,0.09,-0.24,0.0,2022-03-04 10:25:10.598,0
64,1354,-0.2,0.08,0.21,0.0,2022-03-04 10:25:10.698,0
65,1374,-0.15,-0.1,-0.22,0.0,2022-03-04 10:25:10.797,0
66,1394,-0.17,-0.07,-0.3,0.0,2022-03-04 10:25:10.895,0
67,1414,-0.22,0.1,-0.28,0.0,2022-03-04 10:25:10.995,0
68,1434,-0.23,0.09,-0.38,0.0,2022-03-04 10:25:11.093,0
69,1454,-0.19,-0.1,-0.3,0.0,2022-03-04 10:25:11.193,0
70,1478,0.14,0.13,-0.33,0.0,2022-03-04 10:25:11.292,1
71,1498,0.3,-0.07,-0.28,0.0,2022-03-04 10:25:11.391,1
72,1518,-0.33,0.37,-0.38,0.0,2022-03-04 10:25:11.490,1
73,1540,0.38,0.44,-0.29,0.0,2022-03-04 10:25:11.591,1
74,1562,0.47,0.46,-0.3,0.0,2022-03-04 10:25:11.699,1
75,1582,0.22,0.4,-0.34,0.0,2022-03-04 10:25:11.799,1
76,1602,-0.32,0.54,-0.36,0.0,2022-03-04 10:25:11.898,1
77,1622,-0.44,0.69,-0.35,0.0,2022-03-04 10:25:11.997,1
78,1642,-0.39,0.78,-0.34,0.0,2022-03-04 10:25:12.098,1
79,1666,-0.38,0.81,-0.3,0.0,2022-03-04 10:25:12.196,1
80,1686,-0.32,0.76,-0.48,0.0,2022-03-04 10:25:12.296,1
81,1706,-0.33,0.97,-0.41,0.0,2022-03-04 10:25:12.394,1
82,1726,-0.48,1.1,0.35,0.0,2022-03-04 10:25:12.493,1
83,1748,-0.54,1.11,-0.18,0.0,2022-03-04 10:25:12.592,1
84,1768,-0.51,1.07,-0.44,0.0,2022-03-04 10:25:12.691,1
85,1788,-0.62,1.29,0.43,0.0,2022-03-04 10:25:12.793,1
86,1808,-0.54,1.6,-0.49,0.0,2022-03-04 10:25:12.890,1
87,1828,-0.72,1.67,0.59,0.0,2022-03-04 10:25:12.989,1
88,1848,-0.8,1.75,-0.45,0.0,2022-03-04 10:25:13.094,1
89,1874,-0.57,1.86,-0.5,0.0,2022-03-04 10:25:13.198,1
90,1894,-0.6,1.86,-0.62,0.0,2022-03-04 10:25:13.298,1
91,1914,-0.68,2.1,0.54,0.0,2022-03-04 10:25:13.398,1
92,1934,-0.78,2.09,0.95,0.0,2022-03-04 10:25:13.499,1
93,1956,-0.5,2.19,-0.72,0.0,2022-03-04 10:25:13.596,1
94,1976,-0.89,2.27,-0.92,0.0,2022-03-04 10:25:13.696,1
95,1996,-0.94,2.44,0.77,0.0,2022-03-04 10:25:13.793,1
96,2016,-0.85,2.49,-1.07,0.0,2022-03-04 10:25:13.893,1
97,2036,-0.63,2.45,-1.27,0.0,2022-03-04 10:25:13.992,1
98,2056,-0.78,2.54,-1.04,0.0,2022-03-04 10:25:14.092,1
99,2076,-1.26,2.39,-1.27,0.0,2022-03-04 10:25:14.190,1
100,2100,-0.73,1.97,-1.13,10.4,2022-03-04 10:25:14.290,1
101,2120,-0.63,0.42,-0.82,10.4,2022-03-04 10:25:14.389,1
102,2142,-0.33,-0.31,-0.44,10.4,2022-03-04 10:25:14.498,1
103,2164,-0.63,1.29,-0.58,10.4,2022-03-04 10:25:14.597,1
104,2184,-0.48,2.26,0.53,10.4,2022-03-04 10:25:14.697,1
105,2204,-0.73,1.73,-1.16,10.4,2022-03-04 10:25:14.797,1
106,2224,0.42,-0.27,-0.58,10.4,2022-03-04 10:25:14.895,1
107,2244,0.5,0.97,0.39,10.4,2022-03-04 10:25:14.995,1
108,2264,0.55,1.65,-0.29,10.4,2022-03-04 10:25:15.095,1
109,2288,-0.61,1.39,-0.7,14.4,2022-03-04 10:25:15.194,1
110,2308,-0.6,0.61,-0.53,14.4,2022-03-04 10:25:15.292,1
111,2328,0.55,0.74,-0.4,14.4,2022-03-04 10:25:15.391,1
112,2348,-0.58,0.96,0.53,14.4,2022-03-04 10:25:15.491,1
113,2370,-0.51,1.1,-0.49,14.4,2022-03-04 10:25:15.590,1
114,2392,0.56,0.81,-0.96,14.4,2022-03-04 10:25:15.699,1
115,2412,-0.42,0.96,-0.97,14.4,2022-03-04 10:25:15.799,1
116,2432,-0.27,1.17,-0.84,14.4,2022-03-04 10:25:15.898,1
117,2452,-0.59,0.89,-0.82,14.4,2022-03-04 10:25:15.999,1
118,2472,0.25,0.76,-0.58,14.4,2022-03-04 10:25:16.099,1
119,2496,-0.51,0.76,0.52,17.3,2022-03-04 10:25:16.196,1
120,2516,-0.43,0.96,-0.42,17.3,2022-03-04 10:25:16.296,1
121,2536,-0.55,0.79,-0.54,17.3,2022-03-04 10:25:16.397,1
122,2556,0.85,0.66,-0.81,17.3,2022-03-04 10:25:16.494,1
123,2578,0.4,0.79,0.81,17.3,2022-03-04 10:25:16.594,1
124,2598,-0.48,0.85,-0.3,17.3,2022-03-04 10:25:16.693,1
125,2618,-0.42,0.65,-0.7,17.3,2022-03-04 10:25:16.791,1
126,2638,-0.58,0.8,0.54,17.3,2022-03-04 10:25:16.890,1
127,2658,-0.76,0.64,-0.65,17.3,2022-03-04 10:25:16.990,1
128,2678,-0.67,0.69,0.28,17.3,2022-03-04 10:25:17.090,1
129,2698,-0.61,0.44,-0.54,17.3,2022-03-04 10:25:17.194,1
130,2724,0.83,0.7,-0.83,20.5,2022-03-04 10:25:17.297,1
131,2744,-1.11,0.55,-0.49,20.5,2022-03-04 10:25:17.398,1
132,2764,-1.03,0.51,0.62,20.5,2022-03-04 10:25:17.496,1
133,2786,-0.99,-0.86,-0.44,20.5,2022-03-04 10:25:17.597,1
134,2806,0.37,-1.29,-0.43,20.5,2022-03-04 10:25:17.695,1
135,2826,-0.62,-0.9,0.82,20.5,2022-03-04 10:25:17.794,1
136,2846,-0.73,-0.8,-0.61,20.5,2022-03-04 10:25:17.893,1
137,2866,0.59,-0.86,0.47,20.5,2022-03-04 10:25:17.993,1
138,2886,-0.45,-0.82,0.84,20.5,2022-03-04 10:25:18.094,1
139,2910,0.45,-1.1,-0.99,22.0,2022-03-04 10:25:18.192,1
140,2930,0.84,-1.15,-1.17,22.0,2022-03-04 10:25:18.290,1
141,2952,0.63,-0.76,0.57,22.0,2022-03-04 10:25:18.399,1
142,2972,-0.23,-0.81,0.61,22.0,2022-03-04 10:25:18.499,1
143,2994,-0.45,-0.63,0.5,22.0,2022-03-04 10:25:18.598,1
144,3014,0.52,-0.42,-0.71,22.0,2022-03-04 10:25:18.697,1
145,3034,-0.45,0.59,-0.6,22.0,2022-03-04 10:25:18.797,1
146,3054,-0.5,1.25,0.99,22.0,2022-03-04 10:25:18.898,1
147,3074,-0.64,1.03,-0.66,22.0,2022-03-04 10:25:18.998,1
148,3092,0.91,-0.91,-0.68,22.0,2022-03-04 10:25:19.087,1
149,3118,1.2,2.24,-0.99,23.8,2022-03-04 10:25:19.194,1
150,3138,-1.04,0.77,-1.0,23.8,2022-03-04 10:25:19.295,1
151,3158,-1.0,0.89,-0.76,23.8,2022-03-04 10:25:19.393,1
152,3178,0.83,1.01,0.5,23.8,2022-03-04 10:25:19.493,1
153,3200,0.68,0.38,-1.1,23.8,2022-03-04 10:25:19.592,1
154,3220,-0.71,1.0,-0.81,23.8,2022-03-04 10:25:19.695,1
155,3242,1.16,0.89,-0.45,23.8,2022-03-04 10:25:19.798,1
156,3262,0.8,0.7,0.82,23.8,2022-03-04 10:25:19.898,1
157,3282,-0.44,1.19,-1.07,23.8,2022-03-04 10:25:19.998,1
158,3300,0.52,0.9,-1.42,23.8,2022-03-04 10:25:20.090,1
159,3326,-0.49,0.59,-1.37,27.0,2022-03-04 10:25:20.196,1
160,3346,-0.82,0.61,0.78,27.0,2022-03-04 10:25:20.295,1
161,3366,0.26,0.44,-0.59,27.0,2022-03-04 10:25:20.395,1
162,3386,0.72,0.6,1.19,27.0,2022-03-04 10:25:20.494,1
163,3408,1.08,0.81,-1.41,27.0,2022-03-04 10:25:20.595,1
164,3428,0.55,0.53,1.04,27.0,2022-03-04 10:25:20.693,1
165,3448,-0.51,0.65,-0.91,27.0,2022-03-04 10:25:20.791,1
166,3468,0.71,0.83,-0.93,27.0,2022-03-04 10:25:20.892,1
167,3488,0.81,0.71,1.01,27.0,2022-03-04 10:25:20.992,1
168,3508,-0.68,0.64,-0.55,27.0,2022-03-04 10:25:21.092,1
169,3534,-0.47,0.68,-1.09,30.2,2022-03-04 10:25:21.199,1
170,3554,-1.03,1.1,-1.41,30.2,2022-03-04 10:25:21.299,1
171,3574,-1.2,0.46,1.2,30.2,2022-03-04 10:25:21.397,1
172,3594,0.55,0.57,1.19,30.2,2022-03-04 10:25:21.496,1
173,3616,-2.02,-0.84,-2.02,30.2,2022-03-04 10:25:21.596,1
174,3636,-1.48,0.7,2.81,30.2,2022-03-04 10:25:21.698,1
175,3656,0.62,0.76,-1.51,30.2,2022-03-04 10:25:21.794,1
176,3676,-0.9,1.69,-1.75,30.2,2022-03-04 10:25:21.893,1
177,3696,-1.78,1.02,-2.03,30.2,2022-03-04 10:25:21.993,1
178,3716,0.37,0.66,-1.27,30.2,2022-03-04 10:25:22.093,1
179,3740,-0.64,0.6,-0.71,33.1,2022-03-04 10:25:22.192,1
180,3760,-0.84,0.77,-1.19,33.1,2022-03-04 10:25:22.294,1
181,3782,-0.69,0.79,1.24,33.1,2022-03-04 10:25:22.399,1
182,3802,-0.53,0.58,0.85,33.1,2022-03-04 10:25:22.498,1
183,3824,-0.57,0.51,-1.26,33.1,2022-03-04 10:25:22.598,1
184,3844,-0.4,0.52,0.89,33.1,2022-03-04 10:25:22.697,1
185,3864,0.56,0.64,-0.7,33.1,2022-03-04 10:25:22.796,1
186,3884,-0.51,0.42,-0.9,33.1,2022-03-04 10:25:22.895,1
187,3904,-1.12,0.54,0.6,33.1,2022-03-04 10:25:22.995,1
188,3924,0.7,0.6,-0.41,33.1,2022-03-04 10:25:23.095,1
189,3948,0.9,0.75,-0.77,36.7,2022-03-04 10:25:23.193,1
190,3968,1.05,0.7,-0.92,36.7,2022-03-04 10:25:23.293,1
191,3988,-0.75,0.65,0.69,36.7,2022-03-04 10:25:23.394,1
192,4008,-1.29,0.59,1.09,36.7,2022-03-04 10:25:23.492,1
193,4030,-0.78,0.62,-1.06,36.7,2022-03-04 10:25:23.592,1
194,4050,0.68,0.7,1.17,36.7,2022-03-04 10:25:23.691,1
195,4072,-0.67,0.8,-0.94,36.7,2022-03-04 10:25:23.799,1
196,4092,1.42,-0.37,-0.68,36.7,2022-03-04 10:25:23.898,1
197,4112,1.09,0.61,0.87,36.7,2022-03-04 10:25:23.998,1
198,4132,-1.11,-0.52,0.79,36.7,2022-03-04 10:25:24.098,1
199,4156,2.02,0.39,0.57,40.0,2022-03-04 10:25:24.196,1
200,4176,-1.27,-1.2,-0.89,40.0,2022-03-04 10:25:24.296,1
201,4196,0.52,-1.24,1.12,40.0,2022-03-04 10:25:24.395,1
202,4216,1.23,-1.09,-1.23,40.0,2022-03-04 10:25:24.494,1
203,4238,0.65,-1.1,-1.32,40.0,2022-03-04 10:25:24.593,1
204,4258,0.67,-1.16,0.81,40.0,2022-03-04 10:25:24.694,1
205,4278,0.35,-1.18,-0.99,40.0,2022-03-04 10:25:24.792,1
206,4298,0.47,-1.05,1.62,40.0,2022-03-04 10:25:24.891,1
207,4318,-0.76,0.75,-1.36,40.0,2022-03-04 10:25:24.992,1
208,4338,-0.83,1.25,1.81,40.0,2022-03-04 10:25:25.092,1
209,4358,-0.78,-0.8,-1.77,40.0,2022-03-04 10:25:25.190,1
210,4384,0.86,0.9,1.72,41.0,2022-03-04 10:25:25.298,1
211,4404,-0.66,-0.68,-1.62,41.0,2022-03-04 10:25:25.397,1
212,4424,1.07,0.93,1.72,41.0,2022-03-04 10:25:25.497,1
213,4446,-1.09,0.55,-2.45,41.0,2022-03-04 10:25:25.596,1
214,4466,-1.93,0.73,1.53,41.0,2022-03-04 10:25:25.695,1
215,4486,2.18,0.87,1.41,41.0,2022-03-04 10:25:25.795,1
216,4506,0.95,-0.57,-2.07,41.0,2022-03-04 10:25:25.893,1
217,4526,0.99,-0.44,1.55,41.0,2022-03-04 10:25:25.992,10
218,4546,-1.19,-0.86,3.09,41.0,2022-03-04 10:25:26.092,10
219,4570,1.52,-0.94,2.46,43.6,2022-03-04 10:25:26.191,10
220,4590,1.45,-1.1,-1.88,43.6,2022-03-04 10:25:26.291,10
221,4610,1.68,-1.01,-2.03,43.6,2022-03-04 10:25:26.395,10
222,4632,-0.87,-0.93,1.39,43.6,2022-03-04 10:25:26.499,10
223,4654,0.87,-0.67,-1.98,43.6,2022-03-04 10:25:26.599,10
224,4672,-0.7,-0.53,1.27,43.6,2022-03-04 10:25:26.688,10
225,4694,-1.1,-0.81,1.57,43.6,2022-03-04 10:25:26.797,10
226,4714,-0.94,-0.58,1.95,43.6,2022-03-04 10:25:26.896,10
227,4734,1.55,-0.66,0.82,43.6,2022-03-04 10:25:26.995,10
228,4754,-1.49,-0.69,-0.81,43.6,2022-03-04 10:25:27.099,10
229,4778,-0.98,-0.74,-1.44,45.4,2022-03-04 10:25:27.195,10
230,4798,1.38,-0.77,-2.34,45.4,2022-03-04 10:25:27.293,10
231,4818,-1.01,-0.58,1.35,45.4,2022-03-04 10:25:27.392,10
232,4838,-1.03,-0.67,-0.94,45.4,2022-03-04 10:25:27.492,10
233,4860,-0.69,-1.0,-1.12,45.4,2022-03-04 10:25:27.591,10
234,4880,0.9,-0.69,1.33,45.4,2022-03-04 10:25:27.690,10
235,4902,0.98,-1.02,1.57,45.4,2022-03-04 10:25:27.799,10
236,4922,1.14,-1.19,-1.6,45.4,2022-03-04 10:25:27.899,10
237,4942,1.51,-0.88,-2.29,45.4,2022-03-04 10:25:27.998,10
238,4962,0.78,-0.96,-1.36,45.4,2022-03-04 10:25:28.098,10
239,4986,-1.44,-1.46,-1.35,46.4,2022-03-04 10:25:28.197,10
240,5006,-1.21,-1.27,1.4,46.4,2022-03-04 10:25:28.295,10
241,5026,1.14,-1.39,-2.11,46.4,2022-03-04 10:25:28.395,10
242,5046,1.07,-1.64,-1.59,46.4,2022-03-04 10:25:28.494,10
243,5068,0.8,-0.95,-1.37,46.4,2022-03-04 10:25:28.593,10
244,5088,0.72,-1.18,-1.04,46.4,2022-03-04 10:25:28.693,10
245,5108,1.1,-1.1,-1.63,46.4,2022-03-04 10:25:28.792,10
246,5128,0.94,-1.13,1.12,46.4,2022-03-04 10:25:28.891,10
247,5148,1.02,-0.97,-0.95,46.4,2022-03-04 10:25:28.990,10
248,5168,0.82,-1.01,1.35,46.4,2022-03-04 10:25:29.090,10
249,5190,-0.56,-1.03,-0.8,46.4,2022-03-04 10:25:29.199,10
250,5214,-0.96,-1.03,1.25,46.4,2022-03-04 10:25:29.298,10
251,5234,0.66,-0.89,-1.28,46.4,2022-03-04 10:25:29.398,10
252,5254,0.94,-0.96,2.11,46.4,2022-03-04 10:25:29.496,10
253,5276,-1.08,-1.05,1.34,46.4,2022-03-04 10:25:29.598,10
254,5296,1.27,-1.07,-1.61,46.4,2022-03-04 10:25:29.696,10
255,5316,-1.45,-0.69,-2.17,46.4,2022-03-04 10:25:29.795,10
256,5336,2.07,-0.98,-2.76,46.4,2022-03-04 10:25:29.894,10
257,5356,-0.82,-0.88,-1.84,46.4,2022-03-04 10:25:29.993,10
258,5376,1.84,-0.93,2.42,46.4,2022-03-04 10:25:30.093,10
259,5400,-1.16,-1.39,1.69,46.8,2022-03-04 10:25:30.192,10
260,5420,1.25,-0.66,-1.65,46.8,2022-03-04 10:25:30.292,10
261,5440,1.87,-0.99,-0.96,46.8,2022-03-04 10:25:30.390,10
262,5462,-0.68,-0.79,0.64,46.8,2022-03-04 10:25:30.499,10
263,5484,1.54,-0.81,1.66,46.8,2022-03-04 10:25:30.599,10
264,5504,0.45,-0.88,1.56,46.8,2022-03-04 10:25:30.699,10
265,5524,0.77,-0.88,-1.38,46.8,2022-03-04 10:25:30.797,10
266,5544,0.75,-0.73,1.36,46.8,2022-03-04 10:25:30.896,10
267,5564,-0.5,-0.85,-2.25,46.8,2022-03-04 10:25:30.995,10
268,5584,-1.15,-0.91,-1.05,46.8,2022-03-04 10:25:31.098,4
269,5608,1.37,-1.11,1.42,47.5,2022-03-04 10:25:31.194,4
270,5628,0.92,-1.47,-1.9,47.5,2022-03-04 10:25:31.293,4
271,5648,0.87,-1.25,-2.76,47.5,2022-03-04 10:25:31.392,4
272,5668,1.09,-1.28,-1.12,47.5,2022-03-04 10:25:31.492,4
273,5690,-0.84,-0.96,-1.17,47.5,2022-03-04 10:25:31.591,4
274,5710,1.23,-1.01,-0.92,47.5,2022-03-04 10:25:31.691,4
275,5730,0.79,-1.03,-0.63,47.5,2022-03-04 10:25:31.790,4
276,5750,1.3,-1.09,-1.07,47.5,2022-03-04 10:25:31.889,4
277,5772,0.68,-1.14,0.94,47.5,2022-03-04 10:25:31.998,4
278,5790,1.44,-1.03,0.9,47.5,2022-03-04 10:25:32.090,4
279,5816,-0.71,-1.17,1.21,47.5,2022-03-04 10:25:32.198,4
280,5836,-0.89,-1.26,-1.07,47.2,2022-03-04 10:25:32.296,4
281,5856,0.44,-1.29,0.99,47.2,2022-03-04 10:25:32.395,4
282,5876,-1.03,-1.51,-0.94,47.2,2022-03-04 10:25:32.498,4
283,5898,0.71,-1.18,-1.04,47.2,2022-03-04 10:25:32.594,4
284,5918,0.69,-1.41,-0.6,47.2,2022-03-04 10:25:32.693,4
285,5938,0.5,-1.46,-0.7,47.2,2022-03-04 10:25:32.793,4
286,5958,1.09,-1.57,-0.91,47.2,2022-03-04 10:25:32.892,4
287,5978,-0.8,-1.46,0.66,47.2,2022-03-04 10:25:32.990,4
288,5998,0.66,-1.5,-0.97,47.2,2022-03-04 10:25:33.091,4
289,6024,1.22,-1.55,-0.81,47.2,2022-03-04 10:25:33.199,4
290,6042,0.86,-1.74,-1.38,45.7,2022-03-04 10:25:33.288,4
291,6062,1.36,-1.65,-1.59,45.7,2022-03-04 10:25:33.389,4
292,6084,0.71,-1.69,-1.73,45.7,2022-03-04 10:25:33.497,4
293,6106,1.17,-1.89,-1.22,45.7,2022-03-04 10:25:33.597,4
294,6126,1.34,-1.47,-1.64,45.7,2022-03-04 10:25:33.695,4
295,6146,0.91,-1.47,-0.89,45.7,2022-03-04 10:25:33.795,4
296,6166,0.9,-1.49,0.46,45.7,2022-03-04 10:25:33.895,4
297,6186,0.76,-1.72,-1.34,45.7,2022-03-04 10:25:33.993,4
298,6206,1.45,-1.76,1.06,45.7,2022-03-04 10:25:34.092,4
299,6230,0.81,-1.55,-1.03,45.7,2022-03-04 10:25:34.191,4
300,6250,1.09,-1.32,-0.62,43.2,2022-03-04 10:25:34.291,4
301,6270,0.82,-1.44,-0.51,43.2,2022-03-04 10:25:34.390,4
302,6290,-0.9,-1.62,-1.12,43.2,2022-03-04 10:25:34.490,4
303,6312,0.39,-1.39,-0.88,43.2,2022-03-04 10:25:34.589,4
304,6334,0.65,-1.66,-0.8,43.2,2022-03-04 10:25:34.699,4
305,6354,0.85,-1.51,0.65,43.2,2022-03-04 10:25:34.799,4
306,6374,1.05,-1.29,-0.5,43.2,2022-03-04 10:25:34.897,4
307,6394,0.75,-1.48,-0.37,43.2,2022-03-04 10:25:34.996,4
308,6414,0.79,-1.26,0.46,43.2,2022-03-04 10:25:35.096,4
309,6438,0.98,-1.43,0.6,43.2,2022-03-04 10:25:35.195,4
310,6458,0.68,-1.34,-1.04,40.0,2022-03-04 10:25:35.295,4
311,6478,0.35,-1.27,-0.7,40.0,2022-03-04 10:25:35.393,4
312,6498,0.64,-1.22,-0.68,40.0,2022-03-04 10:25:35.492,4
313,6520,0.99,-1.29,0.46,40.0,2022-03-04 10:25:35.591,4
314,6540,1.08,-1.36,-0.96,40.0,2022-03-04 10:25:35.691,4
315,6560,1.08,-1.1,-0.45,40.0,2022-03-04 10:25:35.790,4
316,6580,0.94,-1.03,0.71,40.0,2022-03-04 10:25:35.890,4
317,6600,0.37,-1.07,-0.57,40.0,2022-03-04 10:25:35.990,4
318,6622,0.46,-1.36,-0.95,40.0,2022-03-04 10:25:36.099,4
319,6642,0.76,-1.26,-0.61,40.0,2022-03-04 10:25:36.198,4
320,6666,0.64,-1.37,-0.72,40.0,2022-03-04 10:25:36.299,4
321,6686,0.83,-1.22,-0.52,36.4,2022-03-04 10:25:36.395,4
322,6706,1.05,-1.39,-0.42,36.4,2022-03-04 10:25:36.495,4
323,6728,0.6,-1.49,0.63,36.4,2022-03-04 10:25:36.594,4
324,6748,0.96,-1.26,-0.6,36.4,2022-03-04 10:25:36.693,4
325,6768,1.04,-1.4,-0.59,36.4,2022-03-04 10:25:36.792,4
326,6788,0.85,-1.51,-0.63,36.4,2022-03-04 10:25:36.894,4
327,6808,0.58,-1.55,-0.87,36.4,2022-03-04 10:25:36.991,4
328,6828,0.67,-1.65,-0.34,36.4,2022-03-04 10:25:37.093,4
329,6852,0.6,-1.52,-0.67,36.4,2022-03-04 10:25:37.191,4
330,6874,0.84,-1.59,-0.49,31.7,2022-03-04 10:25:37.299,4
331,6894,0.63,-1.58,0.6,31.7,2022-03-04 10:25:37.398,4
332,6914,0.99,-1.48,0.66,31.7,2022-03-04 10:25:37.498,4
333,6934,1.13,-1.46,-0.4,31.7,2022-03-04 10:25:37.587,4
334,6956,1.35,-1.53,-0.51,31.7,2022-03-04 10:25:37.697,4
335,6976,1.49,-1.47,-0.49,31.7,2022-03-04 10:25:37.798,4
336,6996,1.43,-1.5,-0.78,31.7,2022-03-04 10:25:37.894,7
337,7016,1.29,-1.53,0.58,31.7,2022-03-04 10:25:37.994,7
338,7036,1.19,-1.64,0.29,31.7,2022-03-04 10:25:38.093,7
339,7060,1.1,-1.63,-0.51,31.7,2022-03-04 10:25:38.194,7
340,7080,1.68,-1.52,-0.91,25.9,2022-03-04 10:25:38.291,7
341,7100,1.38,-1.42,-0.71,25.9,2022-03-04 10:25:38.391,7
342,7120,1.23,-1.29,0.55,25.9,2022-03-04 10:25:38.490,7
343,7144,0.91,-1.08,-0.35,25.9,2022-03-04 10:25:38.599,7
344,7164,0.94,-0.49,0.41,25.9,2022-03-04 10:25:38.699,7
345,7184,0.98,-0.21,-0.47,25.9,2022-03-04 10:25:38.799,7
346,7204,0.91,-0.21,-0.72,25.9,2022-03-04 10:25:38.897,7
347,7224,0.74,0.31,-0.47,25.9,2022-03-04 10:25:38.996,7
348,7244,0.62,0.31,-0.42,25.9,2022-03-04 10:25:39.097,7
349,7268,0.49,0.46,-0.55,25.9,2022-03-04 10:25:39.196,7
350,7288,0.4,0.53,0.47,21.2,2022-03-04 10:25:39.294,7
351,7308,-0.55,0.48,-0.73,21.2,2022-03-04 10:25:39.393,7
352,7328,-0.54,0.45,-0.61,21.2,2022-03-04 10:25:39.493,7
353,7350,-0.6,0.56,-0.74,21.2,2022-03-04 10:25:39.596,7
354,7370,-0.73,0.46,-0.44,21.2,2022-03-04 10:25:39.691,7
355,7390,-0.51,0.39,0.52,21.2,2022-03-04 10:25:39.790,7
356,7410,-1.08,0.42,0.37,21.2,2022-03-04 10:25:39.890,7
357,7432,-1.23,0.54,-0.56,21.2,2022-03-04 10:25:39.999,7
358,7450,-1.17,0.48,-0.51,21.2,2022-03-04 10:25:40.089,7
359,7472,-1.27,0.64,-0.83,21.2,2022-03-04 10:25:40.198,7
360,7496,-1.31,0.56,-0.7,19.1,2022-03-04 10:25:40.298,7
361,7516,-1.79,0.68,0.42,19.1,2022-03-04 10:25:40.397,7
362,7536,-1.87,0.5,0.48,19.1,2022-03-04 10:25:40.495,7
363,7558,-1.97,0.72,0.73,19.1,2022-03-04 10:25:40.595,7
364,7578,-1.81,0.71,-0.83,19.1,2022-03-04 10:25:40.697,7
365,7598,-2.39,0.77,0.95,19.1,2022-03-04 10:25:40.793,7
366,7618,-2.08,0.76,-0.73,19.1,2022-03-04 10:25:40.896,7
367,7638,-2.17,0.72,-0.51,19.1,2022-03-04 10:25:40.991,7
368,7658,-2.5,0.92,0.32,19.1,2022-03-04 10:25:41.091,7
369,7680,-2.88,0.76,0.74,19.4,2022-03-04 10:25:41.199,7
370,7704,-2.77,0.63,0.42,19.4,2022-03-04 10:25:41.299,7
371,7724,-3.01,0.57,-0.67,19.4,2022-03-04 10:25:41.398,7
372,7744,-2.79,0.57,0.65,19.4,2022-03-04 10:25:41.499,7
373,7766,-3.11,0.57,0.78,19.4,2022-03-04 10:25:41.597,7
374,7786,-2.94,0.69,-0.57,19.4,2022-03-04 10:25:41.699,7
375,7806,-2.9,0.67,0.58,19.4,2022-03-04 10:25:41.798,7
376,7826,-2.71,0.51,0.63,19.4,2022-03-04 10:25:41.896,7
377,7846,-3.08,0.36,0.93,19.4,2022-03-04 10:25:41.995,7
378,7866,-3.35,0.43,-0.59,19.4,2022-03-04 10:25:42.098,7
379,7890,-3.66,-0.19,-0.46,19.4,2022-03-04 10:25:42.195,7
380,7910,-3.13,-0.39,0.44,19.1,2022-03-04 10:25:42.294,7
381,7930,-3.27,-0.35,0.47,19.1,2022-03-04 10:25:42.391,7
382,7950,-3.09,-0.46,0.38,19.1,2022-03-04 10:25:42.490,7
383,7972,-3.21,-0.26,-0.61,19.1,2022-03-04 10:25:42.589,7
384,7994,-2.9,-0.35,-0.65,19.1,2022-03-04 10:25:42.699,7
385,8012,-2.79,-0.43,0.46,19.1,2022-03-04 10:25:42.788,7
386,8034,-3.03,-0.57,-0.69,19.1,2022-03-04 10:25:42.897,7
387,8054,-3.02,-0.64,-0.67,19.1,2022-03-04 10:25:42.997,7
388,8072,-3.21,-0.51,-0.49,19.1,2022-03-04 10:25:43.088,7
389,8098,-3.26,-0.7,0.52,19.1,2022-03-04 10:25:43.197,7
390,8118,-2.69,-0.73,-0.58,19.1,2022-03-04 10:25:43.295,7
391,8138,-2.77,-0.79,-0.67,19.1,2022-03-04 10:25:43.395,7
392,8158,-2.65,-0.93,0.63,19.1,2022-03-04 10:25:43.495,7
393,8180,-2.72,-0.76,0.64,19.1,2022-03-04 10:25:43.594,7
394,8200,-2.75,-0.98,0.47,19.1,2022-03-04 10:25:43.693,7
395,8220,-2.83,-0.86,-0.63,19.1,2022-03-04 10:25:43.791,7
396,8240,-2.59,-1.04,-0.47,19.1,2022-03-04 10:25:43.890,7
397,8262,-3.32,-1.14,0.8,19.1,2022-03-04 10:25:43.999,7
398,8282,-2.54,-1.26,-0.53,19.1,2022-03-04 10:25:44.099,7
399,8306,-2.4,-1.27,-0.58,19.1,2022-03-04 10:25:44.197,7
400,8326,-2.66,-1.31,0.85,18.4,2022-03-04 10:25:44.297,7
401,8346,-3.05,-1.59,1.02,18.4,2022-03-04 10:25:44.396,7
402,8366,-3.0,-1.45,-0.39,18.4,2022-03-04 10:25:44.496,7
403,8388,-2.64,-1.51,0.38,18.4,2022-03-04 10:25:44.596,7
404,8408,-2.97,-1.58,-0.54,18.4,2022-03-04 10:25:44.695,7
405,8428,-2.89,-1.64,-0.48,18.4,2022-03-04 10:25:44.794,7
406,8448,-2.89,-1.85,-0.74,18.4,2022-03-04 10:25:44.894,7
407,8468,-2.97,-1.77,0.65,18.4,2022-03-04 10:25:44.994,7
408,8488,-2.93,-1.86,0.82,18.4,2022-03-04 10:25:45.092,7
409,8512,-3.4,-1.99,-0.73,18.4,2022-03-04 10:25:45.191,7
410,8532,-3.14,-1.91,1.14,16.6,2022-03-04 10:25:45.289,7
411,8554,-3.2,-1.85,-0.58,16.6,2022-03-04 10:25:45.399,7
412,8574,-3.0,-1.84,-0.46,16.6,2022-03-04 10:25:45.498,7
413,8596,-3.4,-2.16,0.69,16.6,2022-03-04 10:25:45.598,7
414,8616,-3.29,-2.11,0.37,16.6,2022-03-04 10:25:45.697,7
415,8636,-3.07,-1.92,0.87,16.6,2022-03-04 10:25:45.796,7
416,8656,-3.79,-2.04,-0.76,16.6,2022-03-04 10:25:45.897,7
417,8676,-3.39,-2.0,1.03,16.6,2022-03-04 10:25:45.995,7
418,8696,-4.28,-1.93,-1.26,16.6,2022-03-04 10:25:46.094,7
419,8716,-3.41,-2.11,-0.6,16.6,2022-03-04 10:25:46.193,7
420,8740,-3.08,-1.87,1.3,18.7,2022-03-04 10:25:46.292,7
421,8760,-3.69,-1.65,1.57,18.7,2022-03-04 10:25:46.392,7
422,8780,-4.57,-1.79,1.18,18.7,2022-03-04 10:25:46.492,7
423,8802,-3.45,-1.7,1.59,18.7,2022-03-04 10:25:46.592,7
424,8824,-3.95,-1.78,1.46,18.7,2022-03-04 10:25:46.699,7
425,8844,-3.38,-1.6,1.27,18.7,2022-03-04 10:25:46.798,7
426,8864,-4.09,-1.67,0.98,18.7,2022-03-04 10:25:46.898,7
427,8882,-2.53,-1.41,1.85,18.7,2022-03-04 10:25:46.987,7
428,8902,-2.54,-1.17,-1.43,18.7,2022-03-04 10:25:47.087,7
429,8928,-1.63,-1.14,0.76,18.7,2022-03-04 10:25:47.195,7
430,8948,-1.51,-1.08,1.03,18.7,2022-03-04 10:25:47.295,7
431,8968,-1.34,-1.19,-1.23,18.7,2022-03-04 10:25:47.397,7
432,8988,-1.15,-1.08,-0.84,18.7,2022-03-04 10:25:47.493,7
433,9010,-0.95,-1.13,-0.84,18.7,2022-03-04 10:25:47.592,7
434,9030,-1.13,-0.82,-0.39,18.7,2022-03-04 10:25:47.695,7
435,9050,-0.93,-0.79,-0.33,18.7,2022-03-04 10:25:47.794,7
436,9070,-0.9,-0.93,0.34,18.7,2022-03-04 10:25:47.892,7
437,9090,-0.9,-0.69,0.45,18.7,2022-03-04 10:25:47.990,7
438,9110,0.78,-0.77,-0.45,18.7,2022-03-04 10:25:48.090,7
439,9136,1.01,-0.59,-0.43,18.7,2022-03-04 10:25:48.199,7
440,9156,-0.55,-0.8,0.45,18.7,2022-03-04 10:25:48.298,7
441,9176,-0.66,-0.78,0.37,18.7,2022-03-04 10:25:48.397,7
442,9196,-0.61,-0.66,0.38,18.7,2022-03-04 10:25:48.496,1
443,9218,0.53,-0.87,-0.9,18.7,2022-03-04 10:25:48.595,1
444,9238,0.71,-0.66,-0.74,18.7,2022-03-04 10:25:48.694,1
445,9258,0.89,-0.64,-0.53,18.7,2022-03-04 10:25:48.794,1
446,9278,0.59,-0.62,0.5,18.7,2022-03-04 10:25:48.893,1
447,9298,0.73,-0.73,0.62,18.7,2022-03-04 10:25:48.998,1
448,9318,1.11,-0.63,-0.57,18.7,2022-03-04 10:25:49.092,1
449,9342,1.17,-0.61,-0.69,21.6,2022-03-04 10:25:49.193,1
450,9362,1.31,-0.34,-0.88,21.6,2022-03-04 10:25:49.290,1
451,9384,0.76,-0.46,1.15,21.6,2022-03-04 10:25:49.399,1
452,9404,0.88,-0.4,0.8,21.6,2022-03-04 10:25:49.498,1
453,9426,0.7,-0.34,-0.55,21.6,2022-03-04 10:25:49.597,1
454,9446,0.78,-0.34,-0.43,21.6,2022-03-04 10:25:49.697,1
455,9466,1.13,-0.46,-0.74,21.6,2022-03-04 10:25:49.798,1
456,9486,1.32,-0.3,0.55,21.6,2022-03-04 10:25:49.896,1
457,9506,0.82,-0.47,0.93,21.6,2022-03-04 10:25:49.995,1
458,9526,1.5,-0.44,-0.93,21.6,2022-03-04 10:25:50.094,1
459,9550,1.61,-0.27,0.75,25.2,2022-03-04 10:25:50.193,1
460,9570,1.92,-0.4,-1.01,25.2,2022-03-04 10:25:50.293,1
461,9590,1.53,-0.53,-0.46,25.2,2022-03-04 10:25:50.392,1
462,9610,1.28,-0.38,1.04,25.2,2022-03-04 10:25:50.491,1
463,9632,1.69,-0.47,-0.62,25.2,2022-03-04 10:25:50.590,1
464,9654,1.36,-0.62,-1.18,25.2,2022-03-04 10:25:50.699,1
465,9674,1.74,-0.39,-0.83,25.2,2022-03-04 10:25:50.798,1
466,9694,1.38,0.57,1.47,25.2,2022-03-04 10:25:50.899,1
467,9714,1.19,0.3,-0.81,25.2,2022-03-04 10:25:50.997,1
468,9734,1.31,0.57,-0.74,25.2,2022-03-04 10:25:51.096,1
469,9758,1.26,-0.4,0.75,28.1,2022-03-04 10:25:51.196,1
470,9778,1.31,0.46,1.1,28.1,2022-03-04 10:25:51.295,1
471,9798,1.39,0.54,1.11,28.1,2022-03-04 10:25:51.394,1
472,9818,1.9,0.63,-0.9,28.1,2022-03-04 10:25:51.495,1
473,9840,2.26,0.53,-0.9,28.1,2022-03-04 10:25:51.593,1
474,9860,1.81,0.51,-1.49,28.1,2022-03-04 10:25:51.692,1
475,9880,1.76,-0.22,1.14,28.1,2022-03-04 10:25:51.792,1
476,9900,1.18,0.54,-1.38,28.1,2022-03-04 10:25:51.890,1
477,9920,1.23,-0.29,0.96,28.1,2022-03-04 10:25:51.992,1
478,9942,0.97,0.31,1.05,28.1,2022-03-04 10:25:52.099,1
479,9966,1.0,-0.17,0.93,31.3,2022-03-04 10:25:52.198,1
480,9986,0.8,0.24,-1.04,31.3,2022-03-04 10:25:52.298,1
481,10006,0.67,0.29,0.57,31.3,2022-03-04 10:25:52.396,1
482,10026,0.55,-0.28,1.14,31.3,2022-03-04 10:25:52.496,1
483,10048,0.66,-0.32,1.07,31.3,2022-03-04 10:25:52.595,1
484,10068,0.92,-0.31,-1.0,31.3,2022-03-04 10:25:52.694,1
485,10088,0.44,0.22,-1.05,31.3,2022-03-04 10:25:52.794,1
486,10108,0.88,-0.35,-1.01,31.3,2022-03-04 10:25:52.893,1
487,10128,0.92,0.17,-1.41,31.3,2022-03-04 10:25:52.993,1
488,10148,0.94,0.36,1.09,31.3,2022-03-04 10:25:53.092,1
489,10172,0.76,-0.24,-1.02,34.6,2022-03-04 10:25:53.194,1
490,10192,1.02,-0.37,0.91,34.6,2022-03-04 10:25:53.291,1
491,10212,0.61,-0.79,1.1,34.6,2022-03-04 10:25:53.391,1
492,10232,0.89,-1.36,-0.91,34.6,2022-03-04 10:25:53.491,1
493,10256,0.88,-1.28,-0.65,34.6,2022-03-04 10:25:53.598,1
494,10276,0.97,-1.31,0.51,34.6,2022-03-04 10:25:53.697,1
495,10296,0.94,-1.21,-0.86,34.6,2022-03-04 10:25:53.796,1
496,10316,0.84,-1.21,0.38,34.6,2022-03-04 10:25:53.895,1
497,10336,0.8,-1.39,-0.52,34.6,2022-03-04 10:25:53.996,1
498,10356,1.12,-1.35,0.99,34.6,2022-03-04 10:25:54.099,1
499,10376,0.76,-1.29,0.69,34.6,2022-03-04 10:25:54.194,1
500,10400,0.81,-1.26,1.11,35.3,2022-03-04 10:25:54.293,1
501,10420,0.95,-0.76,-0.8,35.3,2022-03-04 10:25:54.392,1
502,10440,0.41,0.26,0.9,35.3,2022-03-04 10:25:54.492,1
503,10462,0.96,0.18,0.7,35.3,2022-03-04 10:25:54.592,1
504,10482,0.66,0.26,-0.96,35.3,2022-03-04 10:25:54.691,1
505,10504,1.28,-0.57,-1.5,35.3,2022-03-04 10:25:54.799,1
506,10524,0.87,-0.53,-0.83,35.3,2022-03-04 10:25:54.898,1
507,10544,0.91,-0.39,0.63,35.3,2022-03-04 10:25:54.997,1
508,10564,0.65,-0.53,1.08,35.3,2022-03-04 10:25:55.097,1
509,10588,1.31,-0.55,1.29,37.4,2022-03-04 10:25:55.196,1
510,10608,1.05,-0.63,-0.93,37.4,2022-03-04 10:25:55.295,1
511,10628,0.93,-0.54,-1.24,37.4,2022-03-04 10:25:55.394,1
512,10648,1.08,-0.63,-1.06,37.4,2022-03-04 10:25:55.494,1
513,10670,0.76,0.7,-0.61,37.4,2022-03-04 10:25:55.593,1
514,10690,0.85,0.57,1.18,37.4,2022-03-04 10:25:55.692,1
515,10710,-1.14,0.74,1.43,37.4,2022-03-04 10:25:55.792,1
516,10730,1.35,0.7,1.44,37.4,2022-03-04 10:25:55.891,1
517,10750,0.99,-0.74,-1.7,37.4,2022-03-04 10:25:55.990,1
518,10770,1.05,-0.82,0.76,37.4,2022-03-04 10:25:56.090,1
519,10796,-0.83,-0.67,0.67,40.0,2022-03-04 10:25:56.198,1
520,10816,1.13,-0.87,-1.03,40.0,2022-03-04 10:25:56.298,1
521,10836,0.67,-0.66,0.5,40.0,2022-03-04 10:25:56.397,1
522,10856,0.83,-0.48,-1.13,40.0,2022-03-04 10:25:56.497,1
523,10878,0.8,-0.51,-0.88,40.0,2022-03-04 10:25:56.595,1
524,10898,1.47,-0.47,-1.34,40.0,2022-03-04 10:25:56.695,1
525,10918,1.38,-0.51,-0.94,40.0,2022-03-04 10:25:56.794,1
526,10938,1.36,-0.6,-1.11,40.0,2022-03-04 10:25:56.894,1
527,10958,1.84,-0.61,-1.97,40.0,2022-03-04 10:25:56.993,1
528,10978,1.64,-0.57,-1.62,40.0,2022-03-04 10:25:57.094,1
529,11002,1.07,0.65,-2.0,41.4,2022-03-04 10:25:57.191,1
530,11022,1.24,0.4,1.02,41.4,2022-03-04 10:25:57.291,1
531,11042,1.29,0.81,1.56,41.4,2022-03-04 10:25:57.390,1
532,11062,1.12,0.86,-1.97,41.4,2022-03-04 10:25:57.490,1
533,11084,1.07,-0.39,2.15,41.4,2022-03-04 10:25:57.588,1
534,11106,1.81,1.14,-1.77,41.4,2022-03-04 10:25:57.697,1
535,11126,1.2,0.62,1.78,41.4,2022-03-04 10:25:57.797,1
536,11146,1.41,1.14,-1.95,41.4,2022-03-04 10:25:57.896,1
537,11166,-0.84,0.66,1.48,41.4,2022-03-04 10:25:57.995,1
538,11186,-1.24,0.8,2.0,41.4,2022-03-04 10:25:58.095,1
539,11210,-0.75,-0.78,-1.07,44.3,2022-03-04 10:25:58.195,1
540,11230,0.72,-0.6,-1.13,44.3,2022-03-04 10:25:58.293,1
541,11250,-0.35,-0.64,1.2,44.3,2022-03-04 10:25:58.392,1
542,11270,0.96,-0.41,-0.77,44.3,2022-03-04 10:25:58.491,1
543,11292,-0.56,-0.59,-1.46,44.3,2022-03-04 10:25:58.591,1
544,11312,0.51,-0.56,-1.6,44.3,2022-03-04 10:25:58.690,1
545,11332,0.72,-0.62,-0.63,44.3,2022-03-04 10:25:58.791,1
546,11352,0.82,-0.7,-0.89,44.3,2022-03-04 10:25:58.888,1
547,11372,0.76,-0.46,-0.63,44.3,2022-03-04 10:25:58.988,1
548,11392,1.22,-0.61,-0.92,44.3,2022-03-04 10:25:59.088,1
549,11418,0.48,-0.37,-1.05,46.1,2022-03-04 10:25:59.196,1
550,11438,0.68,-0.6,-0.95,46.1,2022-03-04 10:25:59.295,1
551,11458,0.9,-0.42,1.1,46.1,2022-03-04 10:25:59.395,1
552,11478,0.53,-0.78,-0.95,46.1,2022-03-04 10:25:59.494,1
553,11500,0.97,-1.34,-0.76,46.1,2022-03-04 10:25:59.595,1
554,11520,0.53,-1.69,0.53,46.1,2022-03-04 10:25:59.693,1
555,11540,0.74,-1.2,0.81,46.1,2022-03-04 10:25:59.792,10
556,11560,0.84,-1.19,1.19,46.1,2022-03-04 10:25:59.891,10
557,11580,0.79,-1.06,-0.81,46.1,2022-03-04 10:25:59.990,10
558,11600,0.74,-1.31,-1.27,46.1,2022-03-04 10:26:00.090,10
559,11626,0.76,-1.7,-0.98,46.8,2022-03-04 10:26:00.199,10
560,11644,0.8,-1.13,1.2,46.8,2022-03-04 10:26:00.288,10
561,11666,0.97,-1.17,-0.83,46.8,2022-03-04 10:26:00.398,10
562,11686,0.91,-1.1,-0.36,46.8,2022-03-04 10:26:00.498,10
563,11708,0.69,-1.05,0.81,46.8,2022-03-04 10:26:00.596,10
564,11728,1.28,-1.16,-0.52,46.8,2022-03-04 10:26:00.695,10
565,11748,0.96,-1.2,-0.8,46.8,2022-03-04 10:26:00.795,10
566,11768,0.99,-0.83,-0.71,46.8,2022-03-04 10:26:00.894,10
567,11788,0.68,-0.74,0.83,46.8,2022-03-04 10:26:00.992,10
568,11808,0.52,-0.84,-0.7,46.8,2022-03-04 10:26:01.094,10
569,11832,0.4,-0.61,-0.67,46.8,2022-03-04 10:26:01.192,10
570,11852,0.77,-0.84,-0.51,46.8,2022-03-04 10:26:01.290,10
571,11872,0.57,-0.47,0.7,46.8,2022-03-04 10:26:01.390,10
572,11892,0.64,-0.71,0.92,46.8,2022-03-04 10:26:01.490,10
573,11916,0.99,-0.67,-1.07,46.8,2022-03-04 10:26:01.598,10
574,11936,0.94,-0.57,-1.55,46.8,2022-03-04 10:26:01.698,10
575,11956,-0.71,-0.47,1.11,46.8,2022-03-04 10:26:01.798,10
576,11976,0.61,-0.26,-0.67,46.8,2022-03-04 10:26:01.898,10
577,11996,1.28,-0.78,-0.62,46.8,2022-03-04 10:26:01.997,10
578,12016,0.81,-0.66,0.63,46.8,2022-03-04 10:26:02.099,10
579,12040,0.63,-0.76,-0.65,47.9,2022-03-04 10:26:02.194,10
580,12060,0.91,-0.39,-1.03,47.9,2022-03-04 10:26:02.294,10
581,12080,0.37,-0.55,0.51,47.9,2022-03-04 10:26:02.392,10
582,12100,1.03,-0.54,-0.99,47.9,2022-03-04 10:26:02.492,10
583,12122,0.7,-0.51,0.82,47.9,2022-03-04 10:26:02.591,10
584,12142,0.84,-0.43,0.75,47.9,2022-03-04 10:26:02.691,10
585,12162,1.12,-0.35,0.53,47.9,2022-03-04 10:26:02.789,10
586,12184,0.62,-0.62,-1.13,47.9,2022-03-04 10:26:02.899,10
587,12204,0.86,-0.69,1.46,47.9,2022-03-04 10:26:02.999,10
588,12222,0.63,-0.48,-0.91,47.9,2022-03-04 10:26:03.088,10
589,12244,0.73,-0.46,-1.14,47.9,2022-03-04 10:26:03.199,10
590,12268,0.49,-0.5,-1.19,48.6,2022-03-04 10:26:03.299,10
591,12288,0.84,-0.56,0.59,48.6,2022-03-04 10:26:03.396,10
592,12308,-0.63,-0.66,0.77,48.6,2022-03-04 10:26:03.496,10
593,12330,-0.57,-0.72,-0.39,48.6,2022-03-04 10:26:03.594,4
594,12350,1.13,-0.92,0.92,48.6,2022-03-04 10:26:03.693,4
595,12370,-0.34,-0.96,-0.87,48.6,2022-03-04 10:26:03.792,4
596,12390,-0.39,-1.08,0.98,48.6,2022-03-04 10:26:03.892,4
597,12410,0.29,-1.09,-0.8,48.6,2022-03-04 10:26:03.990,4
598,12430,0.71,-0.83,-0.74,48.6,2022-03-04 10:26:04.090,4
599,12454,-0.51,-0.94,-0.44,48.6,2022-03-04 10:26:04.190,4
600,12474,0.45,-1.14,0.84,48.2,2022-03-04 10:26:04.290,4
601,12496,0.78,-1.21,0.68,48.2,2022-03-04 10:26:04.399,4
602,12516,0.69,-1.43,-0.54,48.2,2022-03-04 10:26:04.498,4
603,12538,0.32,-1.44,-0.69,48.2,2022-03-04 10:26:04.597,4
604,12558,0.37,-1.35,-0.98,48.2,2022-03-04 10:26:04.696,4
605,12578,0.69,-1.42,-0.56,48.2,2022-03-04 10:26:04.796,4
606,12598,0.35,-1.58,0.61,48.2,2022-03-04 10:26:04.896,4
607,12618,0.5,-1.77,0.61,48.2,2022-03-04 10:26:04.996,4
608,12638,0.85,-1.86,-0.96,48.2,2022-03-04 10:26:05.092,4
609,12662,0.8,-1.73,-0.8,48.2,2022-03-04 10:26:05.193,4
610,12682,0.54,-1.94,-0.65,46.1,2022-03-04 10:26:05.291,4
611,12702,0.95,-1.75,-0.75,46.1,2022-03-04 10:26:05.390,4
612,12722,0.63,-2.13,-0.85,46.1,2022-03-04 10:26:05.490,4
613,12744,0.45,-1.87,-0.93,46.1,2022-03-04 10:26:05.589,4
614,12766,0.86,-1.86,0.65,46.1,2022-03-04 10:26:05.698,4
615,12786,0.87,-1.99,0.53,46.1,2022-03-04 10:26:05.798,4
616,12806,1.05,-1.8,-0.66,46.1,2022-03-04 10:26:05.899,4
617,12826,0.8,-2.03,0.8,46.1,2022-03-04 10:26:05.997,4
618,12846,1.14,-1.85,0.45,46.1,2022-03-04 10:26:06.096,4
619,12870,0.69,-1.75,-1.03,46.1,2022-03-04 10:26:06.195,4
620,12890,1.03,-1.93,-1.5,42.1,2022-03-04 10:26:06.295,4
621,12910,0.51,-1.65,-1.21,42.1,2022-03-04 10:26:06.396,4
622,12930,0.87,-1.89,-1.07,42.1,2022-03-04 10:26:06.492,4
623,12952,0.98,-2.01,-1.64,42.1,2022-03-04 10:26:06.591,4
624,12972,0.96,-1.85,-1.45,42.1,2022-03-04 10:26:06.690,4
625,12992,1.49,-1.83,-1.48,42.1,2022-03-04 10:26:06.790,4
626,13014,1.57,-2.25,1.2,42.1,2022-03-04 10:26:06.899,4
627,13034,1.32,-2.11,-1.0,42.1,2022-03-04 10:26:06.999,4
628,13054,0.56,-1.97,-1.41,42.1,2022-03-04 10:26:07.099,4
629,13078,0.98,-1.85,0.56,42.1,2022-03-04 10:26:07.199,4
630,13098,0.58,-1.78,-0.69,38.9,2022-03-04 10:26:07.297,4
631,13118,0.9,-1.79,0.49,38.9,2022-03-04 10:26:07.397,4
632,13138,0.74,-1.81,1.03,38.9,2022-03-04 10:26:07.496,4
633,13160,-1.09,-1.83,-0.79,38.9,2022-03-04 10:26:07.594,4
634,13180,0.71,-1.68,0.69,38.9,2022-03-04 10:26:07.695,4
635,13200,0.78,-1.58,0.62,38.9,2022-03-04 10:26:07.794,4
636,13220,0.85,-1.75,-0.83,38.9,2022-03-04 10:26:07.893,4
637,13240,0.41,-1.51,-1.02,38.9,2022-03-04 10:26:07.991,4
638,13260,-0.47,-1.39,-0.64,38.9,2022-03-04 10:26:08.096,4
639,13284,0.43,-1.12,0.6,38.9,2022-03-04 10:26:08.190,4
640,13306,0.5,-1.05,-0.64,34.9,2022-03-04 10:26:08.299,4
641,13326,0.42,-1.06,0.45,34.9,2022-03-04 10:26:08.398,4
642,13346,0.45,-0.78,-0.75,34.9,2022-03-04 10:26:08.498,4
643,13368,0.29,-0.82,-0.96,34.9,2022-03-04 10:26:08.596,4
644,13388,0.61,-0.75,0.55,34.9,2022-03-04 10:26:08.696,4
645,13408,0.65,-0.66,-0.32,34.9,2022-03-04 10:26:08.795,4
646,13428,0.76,-0.69,-0.47,34.9,2022-03-04 10:26:08.894,4
647,13448,0.6,-0.62,-0.54,34.9,2022-03-04 10:26:08.997,4
648,13468,0.33,-0.72,-0.67,34.9,2022-03-04 10:26:09.094,4
649,13488,0.47,-0.67,0.41,34.9,2022-03-04 10:26:09.195,4
650,13510,0.39,-0.43,0.56,32.4,2022-03-04 10:26:09.282,4
651,13530,0.59,-0.43,-0.63,32.4,2022-03-04 10:26:09.384,4
652,13552,0.65,-0.42,-0.86,32.4,2022-03-04 10:26:09.490,4
653,13574,-0.35,-0.51,-0.58,32.4,2022-03-04 10:26:09.590,4
654,13596,-0.39,-0.46,-0.57,32.4,2022-03-04 10:26:09.698,4
655,13616,0.3,-0.44,-0.5,32.4,2022-03-04 10:26:09.799,4
656,13636,0.33,-0.56,-0.63,32.4,2022-03-04 10:26:09.897,4
657,13656,-0.46,-1.03,-0.68,32.4,2022-03-04 10:26:09.996,4
658,13676,0.36,-1.25,-0.77,32.4,2022-03-04 10:26:10.096,4
659,13700,0.45,-1.06,-0.48,32.4,2022-03-04 10:26:10.195,4
660,13720,0.37,-1.12,0.53,28.8,2022-03-04 10:26:10.294,4
661,13740,0.55,-1.07,-0.64,28.8,2022-03-04 10:26:10.394,4
662,13760,0.26,-1.25,-1.14,28.8,2022-03-04 10:26:10.494,4
663,13782,0.55,-1.35,-0.41,28.8,2022-03-04 10:26:10.594,4
664,13802,0.54,-1.46,0.52,28.8,2022-03-04 10:26:10.693,4
665,13822,0.5,-1.58,-0.41,28.8,2022-03-04 10:26:10.792,4
666,13844,0.42,-1.46,-1.31,28.8,2022-03-04 10:26:10.899,4
667,13864,0.28,-1.52,-0.86,28.8,2022-03-04 10:26:10.998,4
668,13884,0.37,-1.52,-0.47,28.8,2022-03-04 10:26:11.098,4
669,13904,0.45,-1.61,0.48,28.8,2022-03-04 10:26:11.197,4
670,13928,0.52,-1.48,0.43,22.7,2022-03-04 10:26:11.296,4
671,13948,0.47,-1.61,-0.42,22.7,2022-03-04 10:26:11.396,4
672,13968,0.37,-1.71,-0.62,22.7,2022-03-04 10:26:11.495,4
673,13990,-0.29,-1.4,-0.91,22.7,2022-03-04 10:26:11.595,4
674,14010,0.26,-1.45,-0.66,22.7,2022-03-04 10:26:11.694,4
675,14030,0.36,-1.54,0.3,22.7,2022-03-04 10:26:11.795,4
676,14050,0.48,-1.58,0.39,22.7,2022-03-04 10:26:11.894,4
677,14070,0.45,-1.56,-0.44,22.7,2022-03-04 10:26:11.992,4
678,14090,0.48,-1.5,-0.41,22.7,2022-03-04 10:26:12.093,4
679,14114,0.35,-1.56,-0.37,22.7,2022-03-04 10:26:12.190,4
680,14134,0.45,-1.61,-0.26,15.5,2022-03-04 10:26:12.290,4
681,14156,0.36,-1.6,-0.78,15.5,2022-03-04 10:26:12.398,4
682,14176,-0.25,-1.48,-0.72,15.5,2022-03-04 10:26:12.497,4
683,14198,0.28,-1.48,-0.4,15.5,2022-03-04 10:26:12.597,4
684,14218,0.57,-1.74,0.39,15.5,2022-03-04 10:26:12.697,4
685,14238,0.44,-1.37,-0.47,15.5,2022-03-04 10:26:12.795,4
686,14258,0.31,-1.49,-0.45,15.5,2022-03-04 10:26:12.895,4
687,14278,0.24,-1.36,-0.31,15.5,2022-03-04 10:26:12.995,4
688,14298,0.18,-1.14,-0.26,15.5,2022-03-04 10:26:13.095,4
689,14322,0.27,-1.05,-0.51,15.5,2022-03-04 10:26:13.192,4
690,14342,0.17,-0.59,0.21,8.3,2022-03-04 10:26:13.293,4
691,14362,0.25,-0.49,-0.27,8.3,2022-03-04 10:26:13.391,4
692,14382,0.16,-0.47,-0.3,8.3,2022-03-04 10:26:13.491,4
693,14404,-0.2,-0.44,-0.29,8.3,2022-03-04 10:26:13.590,4
694,14426,0.14,-0.47,-0.38,8.3,2022-03-04 10:26:13.699,4
695,14446,0.15,-0.41,-0.27,8.3,2022-03-04 10:26:13.798,4
696,14466,-0.27,-0.32,-0.18,8.3,2022-03-04 10:26:13.897,4
697,14486,0.11,-0.25,-0.22,8.3,2022-03-04 10:26:13.996,4
698,14506,-0.21,-0.09,-0.24,8.3,2022-03-04 10:26:14.096,4
699,14530,0.14,0.4,-0.25,8.3,2022-03-04 10:26:14.195,4
700,14550,-0.3,1.03,-0.25,3.2,2022-03-04 10:26:14.294,4
701,14570,-0.33,1.45,0.09,3.2,2022-03-04 10:26:14.394,4
702,14590,-0.25,1.66,-0.32,3.2,2022-03-04 10:26:14.493,4
703,14612,-0.26,1.52,-0.37,3.2,2022-03-04 10:26:14.592,4
704,14632,-0.32,1.06,-0.37,3.2,2022-03-04 10:26:14.691,4
705,14652,-0.38,1.03,-0.2,3.2,2022-03-04 10:26:14.791,4
706,14672,-0.26,1.09,-0.17,3.2,2022-03-04 10:26:14.890,4
707,14694,-0.26,1.11,-0.26,3.2,2022-03-04 10:26:14.999,4
708,14714,-0.23,1.03,-0.33,3.2,2022-03-04 10:26:15.099,4
709,14738,0.67,1.41,1.53,3.2,2022-03-04 10:26:15.198,4
710,14758,-0.22,0.95,1.35,2.5,2022-03-04 10:26:15.297,4
711,14778,-0.71,1.01,1.05,2.5,2022-03-04 10:26:15.396,4
712,14798,-0.31,0.99,-0.45,2.5,2022-03-04 10:26:15.495,4
713,14820,-0.28,0.94,-0.33,2.5,2022-03-04 10:26:15.595,4
714,14840,-0.26,1.13,-0.26,2.5,2022-03-04 10:26:15.694,4
715,14860,-0.29,0.96,-0.26,2.5,2022-03-04 10:26:15.794,4
716,14880,-0.26,0.97,-0.29,2.5,2022-03-04 10:26:15.893,4
717,14900,-0.32,0.9,-0.27,2.5,2022-03-04 10:26:15.991,4
718,14920,-0.27,0.81,-0.26,2.5,2022-03-04 10:26:16.094,4
719,14944,-0.25,0.71,-0.29,2.5,2022-03-04 10:26:16.190,4
720,14966,-0.25,0.78,-0.55,0.0,2022-03-04 10:26:16.299,4
721,14986,-0.25,0.67,-0.28,0.0,2022-03-04 10:26:16.399,4
722,15006,-0.18,0.74,-0.51,0.0,2022-03-04 10:26:16.498,4
723,15028,-0.23,0.61,-0.27,0.0,2022-03-04 10:26:16.598,4
724,15048,-0.26,0.64,-0.23,0.0,2022-03-04 10:26:16.697,4
725,15068,-0.26,0.62,-0.43,0.0,2022-03-04 10:26:16.796,4
726,15088,-0.23,0.6,-0.29,0.0,2022-03-04 10:26:16.895,4
727,15108,-0.27,0.47,-0.29,0.0,2022-03-04 10:26:16.994,4
728,15128,-0.25,0.42,-0.28,0.0,2022-03-04 10:26:17.094,4
729,15150,-0.22,0.42,-0.23,0.0,2022-03-04 10:26:17.183,4
730,15172,-0.21,0.43,-0.3,0.0,2022-03-04 10:26:17.292,4
731,15192,-0.16,0.41,-0.33,0.0,2022-03-04 10:26:17.391,4
732,15212,-0.25,0.43,-0.31,0.0,2022-03-04 10:26:17.490,0
733,15234,-0.22,0.4,-0.33,0.0,2022-03-04 10:26:17.590,0
734,15254,-0.25,0.37,-0.26,0.0,2022-03-04 10:26:17.690,0
735,15276,-0.17,0.32,-0.35,0.0,2022-03-04 10:26:17.798,0
736,15296,-0.2,0.35,-0.3,0.0,2022-03-04 10:26:17.898,0
737,15316,-0.18,0.3,-0.34,0.0,2022-03-04 10:26:17.997,0
738,15334,-0.21,0.25,-0.28,0.0,2022-03-04 10:26:18.086,0
739,15356,-0.26,0.27,-0.29,0.0,2022-03-04 10:26:18.196,0
740,15358,0.03,0.11,-0.23,0.0,2022-03-04 10:26:18.205,0
