,LineNumber,Accel_X,Accel_Y,Accel_Z,Velocity,RealTime,Label
0,28,0.17,0.09,-0.3,0.0,2022-03-04 10:13:22.593,0
1,48,0.19,-0.1,-0.28,0.0,2022-03-04 10:13:22.692,0
2,68,-0.19,-0.1,-0.45,0.0,2022-03-04 10:13:22.791,0
3,88,-0.57,-0.22,-0.62,0.0,2022-03-04 10:13:22.891,0
4,110,0.18,0.1,-0.35,0.0,2022-03-04 10:13:22.999,0
5,130,-0.23,0.07,-0.22,0.0,2022-03-04 10:13:23.098,0
6,154,0.16,0.11,-0.23,0.0,2022-03-04 10:13:23.198,0
7,174,0.17,-0.1,-0.27,0.0,2022-03-04 10:13:23.297,0
8,194,-0.14,0.06,-0.26,0.0,2022-03-04 10:13:23.396,0
9,214,0.17,-0.08,-0.34,0.0,2022-03-04 10:13:23.495,0
10,236,-0.14,-0.09,-0.25,0.0,2022-03-04 10:13:23.595,0
11,256,0.16,-0.09,-0.3,0.0,2022-03-04 10:13:23.694,0
12,276,0.23,0.08,-0.23,0.0,2022-03-04 10:13:23.794,0
13,296,-0.22,0.12,-0.27,0.0,2022-03-04 10:13:23.892,0
14,316,0.15,0.1,-0.28,0.0,2022-03-04 10:13:23.992,0
15,336,-0.2,0.12,-0.28,0.0,2022-03-04 10:13:24.091,0
16,360,0.17,-0.13,-0.29,0.0,2022-03-04 10:13:24.190,0
17,380,-0.23,0.07,-0.2,0.0,2022-03-04 10:13:24.291,0
18,400,0.12,0.12,-0.3,0.0,2022-03-04 10:13:24.389,0
19,422,-0.22,-0.15,-0.35,0.0,2022-03-04 10:13:24.498,0
20,444,-0.23,0.16,0.28,0.0,2022-03-04 10:13:24.598,0
21,464,0.17,0.06,0.31,0.0,2022-03-04 10:13:24.697,0
22,484,0.23,-0.1,-0.31,0.0,2022-03-04 10:13:24.796,0
23,504,0.19,-0.13,-0.28,0.0,2022-03-04 10:13:24.896,0
24,524,-0.22,0.14,-0.34,0.0,2022-03-04 10:13:24.995,0
25,544,0.2,0.09,-0.3,0.0,2022-03-04 10:13:25.098,0
26,566,0.29,-0.36,0.52,0.0,2022-03-04 10:13:25.195,0
27,588,-0.24,0.09,-0.27,0.0,2022-03-04 10:13:25.292,0
28,608,0.21,0.09,-0.26,0.0,2022-03-04 10:13:25.392,0
29,628,0.14,0.1,-0.28,0.0,2022-03-04 10:13:25.491,0
30,650,-0.2,-0.08,-0.28,0.0,2022-03-04 10:13:25.591,0
31,672,0.15,0.09,-0.29,0.0,2022-03-04 10:13:25.699,0
32,692,0.2,-0.08,-0.25,0.0,2022-03-04 10:13:25.798,0
33,712,0.17,0.07,0.27,0.0,2022-03-04 10:13:25.898,0
34,732,0.18,0.08,-0.27,0.0,2022-03-04 10:13:25.997,0
35,752,0.12,-0.06,-0.29,0.0,2022-03-04 10:13:26.098,0
36,776,-0.19,0.1,-0.27,0.0,2022-03-04 10:13:26.195,0
37,796,0.16,0.09,-0.3,0.0,2022-03-04 10:13:26.296,0
38,816,-0.18,0.1,-0.31,0.0,2022-03-04 10:13:26.394,0
39,836,0.16,-0.07,-0.21,0.0,2022-03-04 10:13:26.494,0
40,858,0.17,-0.1,-0.24,0.0,2022-03-04 10:13:26.592,0
41,878,-0.21,0.09,-0.25,0.0,2022-03-04 10:13:26.694,0
42,898,-0.23,0.1,-0.27,0.0,2022-03-04 10:13:26.791,0
43,918,0.14,0.1,-0.24,0.0,2022-03-04 10:13:26.891,0
44,940,-0.21,0.09,-0.37,0.0,2022-03-04 10:13:26.999,0
45,960,-0.13,0.09,-0.3,0.0,2022-03-04 10:13:27.099,0
46,984,-0.18,-0.1,-0.22,0.0,2022-03-04 10:13:27.198,0
47,1004,-0.14,0.09,0.24,0.0,2022-03-04 10:13:27.297,0
48,1024,0.15,-0.1,-0.27,0.0,2022-03-04 10:13:27.397,0
49,1044,-0.15,-0.09,-0.28,0.0,2022-03-04 10:13:27.497,0
50,1066,0.15,0.09,-0.25,0.0,2022-03-04 10:13:27.595,0
51,1086,-0.17,0.09,0.22,0.0,2022-03-04 10:13:27.694,0
52,1106,0.13,-0.09,-0.25,0.0,2022-03-04 10:13:27.794,0
53,1126,-0.2,0.11,-0.32,0.0,2022-03-04 10:13:27.894,0
54,1146,-0.2,-0.09,-0.25,0.0,2022-03-04 10:13:27.993,0
55,1166,-0.17,0.09,-0.22,0.0,2022-03-04 10:13:28.096,0
56,1186,-0.18,0.1,-0.28,0.0,2022-03-04 10:13:28.192,0
57,1210,-0.2,-0.09,-0.24,0.0,2022-03-04 10:13:28.290,0
58,1230,0.19,-0.08,-0.21,0.0,2022-03-04 10:13:28.392,0
59,1252,0.17,0.08,-0.29,0.0,2022-03-04 10:13:28.498,0
60,1274,-0.18,0.06,-0.15,0.0,2022-03-04 10:13:28.597,0
61,1294,0.13,0.08,0.24,0.0,2022-03-04 10:13:28.698,0
62,1314,0.17,-0.09,-0.22,0.0,2022-03-04 10:13:28.796,0
63,1334,-0.16,-0.07,-0.25,0.0,2022-03-04 10:13:28.895,0
64,1354,0.19,0.1,-0.23,0.0,2022-03-04 10:13:28.995,0
65,1374,-0.16,0.09,0.2,0.0,2022-03-04 10:13:29.094,0
66,1398,0.14,-0.11,-0.22,0.0,2022-03-04 10:13:29.194,0
67,1418,-0.17,0.07,-0.26,0.0,2022-03-04 10:13:29.293,0
68,1438,0.15,-0.07,-0.22,0.0,2022-03-04 10:13:29.392,0
69,1458,-0.21,0.08,-0.17,0.0,2022-03-04 10:13:29.494,0
70,1480,0.15,0.08,-0.21,0.0,2022-03-04 10:13:29.591,0
71,1500,-0.19,0.06,-0.26,0.0,2022-03-04 10:13:29.690,0
72,1522,0.2,0.06,-0.21,0.0,2022-03-04 10:13:29.799,0
73,1542,0.15,-0.06,-0.25,0.0,2022-03-04 10:13:29.899,0
74,1562,-0.18,0.07,-0.31,0.0,2022-03-04 10:13:29.998,0
75,1582,0.17,0.08,-0.25,0.0,2022-03-04 10:13:30.098,0
76,1606,-0.2,-0.09,-0.25,0.0,2022-03-04 10:13:30.196,0
77,1626,0.18,-0.06,0.21,0.0,2022-03-04 10:13:30.295,0
78,1646,0.19,-0.06,-0.26,0.0,2022-03-04 10:13:30.394,0
79,1666,0.17,0.13,-0.19,0.0,2022-03-04 10:13:30.495,0
80,1688,-0.59,-0.14,-0.87,0.0,2022-03-04 10:13:30.594,0
81,1708,-0.37,0.11,-0.29,0.0,2022-03-04 10:13:30.693,0
82,1728,0.26,-0.08,-0.3,0.0,2022-03-04 10:13:30.791,0
83,1748,0.14,-0.09,-0.32,0.0,2022-03-04 10:13:30.891,0
84,1768,-0.23,-0.12,-0.21,0.0,2022-03-04 10:13:30.990,0
85,1788,-0.18,-0.08,-0.32,0.0,2022-03-04 10:13:31.091,0
86,1814,0.15,-0.09,-0.25,0.0,2022-03-04 10:13:31.198,0
87,1834,-0.2,0.08,-0.32,0.0,2022-03-04 10:13:31.298,0
88,1854,-0.13,-0.08,-0.24,0.0,2022-03-04 10:13:31.397,0
89,1874,0.19,0.08,-0.19,0.0,2022-03-04 10:13:31.496,0
90,1896,0.15,-0.11,-0.34,0.0,2022-03-04 10:13:31.596,0
91,1916,-0.14,-0.09,-0.27,0.0,2022-03-04 10:13:31.695,0
92,1936,-0.22,0.1,-0.23,0.0,2022-03-04 10:13:31.794,0
93,1956,0.1,0.06,-0.32,0.0,2022-03-04 10:13:31.893,0
94,1976,-0.2,0.09,-0.25,0.0,2022-03-04 10:13:31.993,0
95,1996,0.19,-0.09,-0.28,0.0,2022-03-04 10:13:32.092,0
96,2018,-0.23,-0.05,-0.34,0.0,2022-03-04 10:13:32.193,1
97,2040,0.19,-0.09,-0.36,0.0,2022-03-04 10:13:32.290,1
98,2060,-0.56,0.64,-0.3,0.0,2022-03-04 10:13:32.390,1
99,2080,-0.47,0.74,-0.38,0.0,2022-03-04 10:13:32.490,1
100,2102,0.5,0.53,-0.64,0.0,2022-03-04 10:13:32.588,1
101,2124,-0.35,0.6,-0.48,0.0,2022-03-04 10:13:32.698,1
102,2144,0.41,0.63,-0.46,0.0,2022-03-04 10:13:32.796,1
103,2164,-0.55,0.85,0.4,0.0,2022-03-04 10:13:32.896,1
104,2184,-0.29,0.93,-0.48,0.0,2022-03-04 10:13:32.995,1
105,2202,-0.52,1.06,-0.28,0.0,2022-03-04 10:13:33.085,1
106,2228,-0.41,1.12,-0.38,0.0,2022-03-04 10:13:33.194,1
107,2248,-0.43,1.15,-0.48,0.0,2022-03-04 10:13:33.293,1
108,2268,-0.62,1.21,-0.6,0.0,2022-03-04 10:13:33.392,1
109,2288,-0.5,1.25,0.41,0.0,2022-03-04 10:13:33.491,1
110,2310,-0.45,1.19,-0.55,0.0,2022-03-04 10:13:33.590,1
111,2330,-0.45,1.29,-0.65,0.0,2022-03-04 10:13:33.691,1
112,2350,-0.68,1.39,0.69,0.0,2022-03-04 10:13:33.789,1
113,2372,-0.58,1.57,-0.54,0.0,2022-03-04 10:13:33.899,1
114,2392,-0.57,1.62,-0.8,0.0,2022-03-04 10:13:33.999,1
115,2410,-0.85,1.66,-0.9,0.0,2022-03-04 10:13:34.087,1
116,2436,-0.67,1.86,0.86,0.0,2022-03-04 10:13:34.198,1
117,2456,-0.65,1.82,-0.55,0.0,2022-03-04 10:13:34.296,1
118,2476,-0.55,1.79,-0.81,0.0,2022-03-04 10:13:34.395,1
119,2496,-0.97,1.83,-0.79,0.0,2022-03-04 10:13:34.494,1
120,2518,-0.83,2.07,0.82,0.0,2022-03-04 10:13:34.593,1
121,2538,-0.69,2.04,-0.98,0.0,2022-03-04 10:13:34.693,1
122,2558,-1.02,2.0,-1.1,0.0,2022-03-04 10:13:34.792,1
123,2578,-0.98,2.28,0.65,0.0,2022-03-04 10:13:34.891,1
124,2598,-0.69,2.12,-1.06,0.0,2022-03-04 10:13:34.991,1
125,2618,-0.83,2.09,0.98,0.0,2022-03-04 10:13:35.090,1
126,2640,-0.66,2.05,-1.11,10.8,2022-03-04 10:13:35.196,1
127,2664,0.48,1.94,-0.65,10.8,2022-03-04 10:13:35.299,1
128,2684,-0.36,0.66,0.57,10.8,2022-03-04 10:13:35.398,1
129,2704,-0.66,0.58,-0.34,10.8,2022-03-04 10:13:35.498,1
130,2726,-0.62,1.48,-0.28,10.8,2022-03-04 10:13:35.598,1
131,2746,-0.45,1.6,-0.77,10.8,2022-03-04 10:13:35.695,1
132,2766,-0.61,1.14,-0.58,10.8,2022-03-04 10:13:35.795,1
133,2786,-0.59,0.75,-0.63,10.8,2022-03-04 10:13:35.894,1
134,2806,-0.67,1.24,-0.69,10.8,2022-03-04 10:13:35.993,1
135,2826,-0.8,1.39,0.76,10.8,2022-03-04 10:13:36.092,1
136,2850,-0.5,1.67,-0.85,14.8,2022-03-04 10:13:36.192,1
137,2870,-0.76,1.33,-1.21,14.8,2022-03-04 10:13:36.290,1
138,2890,0.62,0.97,-1.1,14.8,2022-03-04 10:13:36.390,1
139,2912,-0.29,0.91,-0.85,14.8,2022-03-04 10:13:36.499,1
140,2934,-0.65,0.92,0.76,14.8,2022-03-04 10:13:36.599,1
141,2954,-0.36,0.82,-1.04,14.8,2022-03-04 10:13:36.699,1
142,2974,-0.38,0.82,-0.74,14.8,2022-03-04 10:13:36.797,1
143,2994,-0.68,0.74,-0.53,14.8,2022-03-04 10:13:36.898,1
144,3014,-0.79,0.64,-0.69,14.8,2022-03-04 10:13:36.997,1
145,3034,0.57,0.62,-0.56,14.8,2022-03-04 10:13:37.094,1
146,3058,0.55,0.99,0.75,18.4,2022-03-04 10:13:37.195,1
147,3078,-0.32,0.87,-0.73,18.4,2022-03-04 10:13:37.293,1
148,3098,-0.69,0.88,0.75,18.4,2022-03-04 10:13:37.392,1
149,3118,-0.46,0.78,-0.81,18.4,2022-03-04 10:13:37.492,1
150,3140,-0.65,0.95,-0.56,18.4,2022-03-04 10:13:37.591,1
151,3160,-0.78,0.97,0.53,18.4,2022-03-04 10:13:37.691,1
152,3180,0.96,0.85,0.74,18.4,2022-03-04 10:13:37.791,1
153,3202,-0.97,0.51,-0.69,18.4,2022-03-04 10:13:37.899,1
154,3220,0.7,-0.39,-0.97,18.4,2022-03-04 10:13:37.988,1
155,3240,0.38,-0.85,-0.62,18.4,2022-03-04 10:13:38.087,1
156,3266,-0.58,-0.87,-0.52,21.6,2022-03-04 10:13:38.196,1
157,3286,-0.86,-0.83,-0.51,21.6,2022-03-04 10:13:38.297,1
158,3306,0.92,-0.84,0.47,21.6,2022-03-04 10:13:38.395,1
159,3326,-0.32,-0.87,-0.88,21.6,2022-03-04 10:13:38.496,1
160,3348,0.67,-0.87,-0.69,21.6,2022-03-04 10:13:38.593,1
161,3368,0.48,-0.74,-0.67,21.6,2022-03-04 10:13:38.696,1
162,3388,-0.38,-0.88,-0.39,21.6,2022-03-04 10:13:38.792,1
163,3408,0.6,-0.93,0.3,21.6,2022-03-04 10:13:38.891,1
164,3428,0.56,-0.52,1.04,21.6,2022-03-04 10:13:38.990,1
165,3448,-0.67,0.64,-0.8,21.6,2022-03-04 10:13:39.091,1
166,3474,-0.54,0.82,-0.92,22.7,2022-03-04 10:13:39.199,1
167,3494,-0.77,1.05,-1.26,22.7,2022-03-04 10:13:39.298,1
168,3514,-0.86,1.41,-0.73,22.7,2022-03-04 10:13:39.398,1
169,3534,-0.86,1.49,-1.2,22.7,2022-03-04 10:13:39.498,1
170,3556,-0.73,0.91,-1.21,22.7,2022-03-04 10:13:39.598,1
171,3576,0.42,1.16,0.8,22.7,2022-03-04 10:13:39.696,1
172,3596,0.65,0.94,1.18,22.7,2022-03-04 10:13:39.795,1
173,3616,-1.25,0.68,-1.96,22.7,2022-03-04 10:13:39.897,1
174,3636,1.2,1.68,1.73,22.7,2022-03-04 10:13:39.995,1
175,3656,-1.25,1.32,1.07,22.7,2022-03-04 10:13:40.092,1
176,3676,-1.39,1.16,1.5,22.7,2022-03-04 10:13:40.192,1
177,3700,1.05,1.37,-1.79,27.0,2022-03-04 10:13:40.291,1
178,3720,0.5,1.23,-1.4,27.0,2022-03-04 10:13:40.390,1
179,3742,-1.66,1.27,0.99,27.0,2022-03-04 10:13:40.499,1
180,3762,1.11,1.54,-1.36,27.0,2022-03-04 10:13:40.590,1
181,3784,-1.06,1.59,-1.54,27.0,2022-03-04 10:13:40.698,1
182,3804,-0.74,1.83,1.67,27.0,2022-03-04 10:13:40.797,1
183,3824,0.59,1.42,-1.65,27.0,2022-03-04 10:13:40.896,1
184,3844,1.5,1.33,1.63,27.0,2022-03-04 10:13:40.997,1
185,3864,-0.81,0.51,-2.02,27.0,2022-03-04 10:13:41.096,1
186,3888,-0.99,0.72,-1.34,32.0,2022-03-04 10:13:41.198,1
187,3908,0.78,0.43,-0.94,32.0,2022-03-04 10:13:41.295,1
188,3928,-0.64,0.63,-0.83,32.0,2022-03-04 10:13:41.394,1
189,3948,-0.52,0.62,-1.56,32.0,2022-03-04 10:13:41.494,1
190,3970,-0.85,0.51,0.88,32.0,2022-03-04 10:13:41.591,1
191,3990,0.56,0.42,-1.03,32.0,2022-03-04 10:13:41.691,1
192,4012,1.13,0.64,-2.01,32.0,2022-03-04 10:13:41.799,1
193,4032,-0.83,0.51,0.55,32.0,2022-03-04 10:13:41.899,1
194,4052,2.28,0.57,-1.93,32.0,2022-03-04 10:13:41.998,1
195,4072,-1.1,-0.61,-0.91,32.0,2022-03-04 10:13:42.097,1
196,4092,-0.87,-1.2,0.85,32.0,2022-03-04 10:13:42.198,1
197,4116,0.94,-1.35,-0.71,34.9,2022-03-04 10:13:42.296,1
198,4136,0.74,-1.47,-1.54,34.9,2022-03-04 10:13:42.395,1
199,4156,-0.62,-1.08,0.84,34.9,2022-03-04 10:13:42.495,1
200,4178,0.49,-1.1,1.06,34.9,2022-03-04 10:13:42.595,1
201,4198,1.7,-1.28,1.21,34.9,2022-03-04 10:13:42.693,1
202,4218,2.27,-1.54,-3.05,34.9,2022-03-04 10:13:42.793,1
203,4238,1.32,-1.15,0.76,34.9,2022-03-04 10:13:42.893,1
204,4258,-1.52,-1.68,-2.03,34.9,2022-03-04 10:13:42.991,1
205,4278,-0.5,-0.64,-1.9,34.9,2022-03-04 10:13:43.091,1
206,4302,-1.17,0.62,0.9,35.3,2022-03-04 10:13:43.190,1
207,4324,-0.56,0.48,-0.48,35.3,2022-03-04 10:13:43.299,1
208,4344,-0.98,-0.79,-0.71,35.3,2022-03-04 10:13:43.398,1
209,4364,0.8,0.33,1.04,35.3,2022-03-04 10:13:43.498,1
210,4386,-0.52,-0.58,-0.65,35.3,2022-03-04 10:13:43.596,1
211,4406,1.25,0.42,-0.94,35.3,2022-03-04 10:13:43.696,1
212,4426,-1.04,0.33,0.51,35.3,2022-03-04 10:13:43.795,1
213,4446,0.84,-0.3,-0.7,35.3,2022-03-04 10:13:43.895,1
214,4466,-0.84,0.51,-0.89,35.3,2022-03-04 10:13:43.994,1
215,4486,1.04,0.84,0.87,35.3,2022-03-04 10:13:44.094,1
216,4510,-1.67,0.83,1.28,37.8,2022-03-04 10:13:44.193,1
217,4530,0.79,0.95,-1.12,37.8,2022-03-04 10:13:44.292,1
218,4550,-2.01,0.79,-1.49,37.8,2022-03-04 10:13:44.392,1
219,4570,-1.47,1.0,-1.97,37.8,2022-03-04 10:13:44.490,1
220,4594,-1.57,0.89,-1.81,37.8,2022-03-04 10:13:44.599,1
221,4612,-1.71,1.12,-2.38,37.8,2022-03-04 10:13:44.689,1
222,4634,-1.41,1.26,-1.82,37.8,2022-03-04 10:13:44.797,1
223,4654,1.83,1.12,-2.31,37.8,2022-03-04 10:13:44.898,1
224,4674,-0.85,1.62,-2.24,37.8,2022-03-04 10:13:44.996,1
225,4694,-1.07,0.94,2.23,37.8,2022-03-04 10:13:45.096,1
226,4718,-1.73,1.44,-2.28,41.4,2022-03-04 10:13:45.194,1
227,4738,1.51,1.34,2.17,41.4,2022-03-04 10:13:45.294,1
228,4758,-1.02,1.62,2.08,41.4,2022-03-04 10:13:45.393,1
229,4778,-1.05,-0.57,-1.13,41.4,2022-03-04 10:13:45.493,1
230,4800,-1.1,-0.61,-1.27,41.4,2022-03-04 10:13:45.593,1
231,4820,0.78,-0.71,-0.84,41.4,2022-03-04 10:13:45.692,1
232,4840,1.0,-0.79,-1.43,41.4,2022-03-04 10:13:45.791,1
233,4862,0.71,-0.76,-1.21,41.4,2022-03-04 10:13:45.899,1
234,4880,0.99,-0.35,1.3,41.4,2022-03-04 10:13:45.988,1
235,4902,0.64,-0.5,1.55,41.4,2022-03-04 10:13:46.099,1
236,4922,0.73,-0.63,1.39,41.4,2022-03-04 10:13:46.199,1
237,4946,0.57,-0.98,0.89,44.3,2022-03-04 10:13:46.296,1
238,4966,1.05,-1.22,-0.92,44.3,2022-03-04 10:13:46.396,1
239,4986,0.88,-1.22,-1.41,44.3,2022-03-04 10:13:46.495,1
240,5008,1.01,-1.09,0.99,44.3,2022-03-04 10:13:46.594,1
241,5028,1.18,-1.21,-0.89,44.3,2022-03-04 10:13:46.694,1
242,5048,1.51,-1.21,-1.47,44.3,2022-03-04 10:13:46.794,1
243,5068,1.38,-1.42,-1.28,44.3,2022-03-04 10:13:46.892,1
244,5088,-1.28,-1.44,1.78,44.3,2022-03-04 10:13:46.992,1
245,5108,1.29,-1.5,-2.24,44.3,2022-03-04 10:13:47.092,1
246,5134,0.75,-1.47,-1.85,44.6,2022-03-04 10:13:47.199,1
247,5154,-0.94,-1.17,-1.23,44.6,2022-03-04 10:13:47.299,1
248,5174,-0.81,-1.17,-0.86,44.6,2022-03-04 10:13:47.398,1
249,5194,-0.88,-0.92,-0.9,44.6,2022-03-04 10:13:47.498,1
250,5216,-0.59,-1.06,-0.8,44.6,2022-03-04 10:13:47.597,1
251,5236,-0.7,-0.86,-1.0,44.6,2022-03-04 10:13:47.696,1
252,5256,-0.89,-0.61,1.97,44.6,2022-03-04 10:13:47.795,1
253,5276,-1.73,-0.57,-1.56,44.6,2022-03-04 10:13:47.894,1
254,5296,-1.13,-0.41,0.94,44.6,2022-03-04 10:13:47.994,1
255,5316,1.36,-0.57,-1.57,44.6,2022-03-04 10:13:48.094,1
256,5340,1.16,-0.62,-1.85,45.7,2022-03-04 10:13:48.193,1
257,5360,-0.92,0.4,2.07,45.7,2022-03-04 10:13:48.292,1
258,5380,-0.79,-0.61,-1.41,45.7,2022-03-04 10:13:48.393,1
259,5400,-0.98,-0.79,-1.93,45.7,2022-03-04 10:13:48.491,1
260,5424,1.15,-0.44,0.66,45.7,2022-03-04 10:13:48.599,1
261,5442,-1.5,-0.72,-1.29,45.7,2022-03-04 10:13:48.689,1
262,5464,1.27,-1.05,2.57,45.7,2022-03-04 10:13:48.797,1
263,5484,-1.1,-0.67,-2.41,45.7,2022-03-04 10:13:48.897,1
264,5504,-1.03,-0.52,-1.55,45.7,2022-03-04 10:13:48.996,1
265,5524,-1.48,-0.8,-2.03,45.7,2022-03-04 10:13:49.095,1
266,5548,-1.72,-0.76,-1.32,47.5,2022-03-04 10:13:49.195,1
267,5568,-1.27,0.71,-1.84,47.5,2022-03-04 10:13:49.295,1
268,5588,-1.24,-0.79,-1.85,47.5,2022-03-04 10:13:49.393,1
269,5608,1.64,-0.84,-1.84,47.5,2022-03-04 10:13:49.493,10
270,5630,-1.12,-0.6,-0.79,47.5,2022-03-04 10:13:49.592,10
271,5650,1.26,-0.44,-0.72,47.5,2022-03-04 10:13:49.692,10
272,5670,0.28,-0.49,-0.66,47.5,2022-03-04 10:13:49.791,10
273,5690,-0.81,-0.76,0.99,47.5,2022-03-04 10:13:49.891,10
274,5712,1.01,-0.6,0.77,47.5,2022-03-04 10:13:49.999,10
275,5730,-1.08,-0.55,-0.61,47.5,2022-03-04 10:13:50.088,10
276,5752,-0.68,-0.7,-1.39,47.5,2022-03-04 10:13:50.198,10
277,5776,-1.7,-0.55,-0.99,49.0,2022-03-04 10:13:50.296,10
278,5796,-0.69,-0.8,-1.04,49.0,2022-03-04 10:13:50.396,10
279,5816,-1.15,-0.87,1.28,49.0,2022-03-04 10:13:50.495,10
280,5838,-0.61,-0.87,-3.01,49.0,2022-03-04 10:13:50.594,10
281,5858,1.54,-0.69,-2.31,49.0,2022-03-04 10:13:50.694,10
282,5878,-1.69,-0.97,2.37,49.0,2022-03-04 10:13:50.794,10
283,5898,1.39,-0.75,1.5,49.0,2022-03-04 10:13:50.892,10
284,5918,-1.08,-0.89,-1.32,49.0,2022-03-04 10:13:50.992,10
285,5938,1.08,-1.02,-1.14,49.0,2022-03-04 10:13:51.092,10
286,5962,0.94,-1.33,-0.81,49.3,2022-03-04 10:13:51.190,10
287,5984,0.99,-1.19,-0.77,49.3,2022-03-04 10:13:51.299,10
288,6004,0.6,-0.92,0.99,49.3,2022-03-04 10:13:51.399,10
289,6024,0.71,-0.88,-0.35,49.3,2022-03-04 10:13:51.498,10
290,6046,0.36,-0.97,1.48,49.3,2022-03-04 10:13:51.597,10
291,6064,0.7,-0.75,-1.45,49.3,2022-03-04 10:13:51.687,10
292,6086,0.91,-1.07,-0.68,49.3,2022-03-04 10:13:51.796,10
293,6106,0.59,-0.83,-1.16,49.3,2022-03-04 10:13:51.894,10
294,6126,0.27,-0.81,-0.96,49.3,2022-03-04 10:13:51.994,10
295,6146,-0.95,-1.34,1.15,49.3,2022-03-04 10:13:52.096,10
296,6170,-0.72,-1.5,-0.78,49.3,2022-03-04 10:13:52.193,10
297,6190,0.84,-1.22,-1.37,49.0,2022-03-04 10:13:52.291,4
298,6210,0.43,-1.46,-1.13,49.0,2022-03-04 10:13:52.392,4
299,6230,-0.76,-1.48,-1.02,49.0,2022-03-04 10:13:52.490,4
300,6252,0.82,-1.41,-1.05,49.0,2022-03-04 10:13:52.590,4
301,6274,-1.12,-1.59,-0.8,49.0,2022-03-04 10:13:52.699,4
302,6294,0.54,-1.47,-1.62,49.0,2022-03-04 10:13:52.798,4
303,6314,1.06,-1.85,-1.22,49.0,2022-03-04 10:13:52.897,4
304,6334,0.75,-1.37,-0.54,49.0,2022-03-04 10:13:52.996,4
305,6354,1.05,-1.4,-1.07,49.0,2022-03-04 10:13:53.096,4
306,6378,1.0,-1.6,-1.31,49.0,2022-03-04 10:13:53.195,4
307,6398,0.98,-1.6,0.71,46.8,2022-03-04 10:13:53.297,4
308,6418,0.63,-1.55,-0.88,46.8,2022-03-04 10:13:53.394,4
309,6438,0.45,-1.54,-0.52,46.8,2022-03-04 10:13:53.493,4
310,6460,0.74,-1.46,0.59,46.8,2022-03-04 10:13:53.592,4
311,6480,-0.54,-1.45,0.78,46.8,2022-03-04 10:13:53.691,4
312,6500,0.43,-1.59,-0.72,46.8,2022-03-04 10:13:53.791,4
313,6520,0.48,-1.55,1.19,46.8,2022-03-04 10:13:53.890,4
314,6542,0.95,-1.56,-0.86,46.8,2022-03-04 10:13:53.999,4
315,6562,0.79,-1.57,-0.75,46.8,2022-03-04 10:13:54.099,4
316,6582,-0.77,-1.54,-0.66,46.8,2022-03-04 10:13:54.199,4
317,6606,0.98,-1.54,-0.64,44.3,2022-03-04 10:13:54.298,4
318,6626,0.79,-1.56,-1.12,44.3,2022-03-04 10:13:54.396,4
319,6646,0.6,-1.41,0.7,44.3,2022-03-04 10:13:54.496,4
320,6668,0.88,-1.68,-1.08,44.3,2022-03-04 10:13:54.595,4
321,6688,-0.55,-1.46,0.63,44.3,2022-03-04 10:13:54.694,4
322,6708,0.7,-1.37,-0.43,44.3,2022-03-04 10:13:54.794,4
323,6728,-1.0,-1.54,-0.56,44.3,2022-03-04 10:13:54.894,4
324,6748,0.9,-1.39,1.17,44.3,2022-03-04 10:13:54.992,4
325,6768,0.93,-1.4,-1.08,44.3,2022-03-04 10:13:55.097,4
326,6792,1.3,-1.3,-0.66,44.3,2022-03-04 10:13:55.190,4
327,6812,0.57,-1.41,-1.15,41.8,2022-03-04 10:13:55.289,4
328,6834,-0.76,-1.24,-1.54,41.8,2022-03-04 10:13:55.399,4
329,6854,-0.58,-1.55,1.53,41.8,2022-03-04 10:13:55.498,4
330,6876,0.63,-1.23,0.62,41.8,2022-03-04 10:13:55.597,4
331,6896,0.86,-1.26,-1.16,41.8,2022-03-04 10:13:55.697,4
332,6916,0.95,-1.47,-0.75,41.8,2022-03-04 10:13:55.796,4
333,6936,0.55,-1.11,-0.93,41.8,2022-03-04 10:13:55.895,4
334,6956,0.65,-1.24,-0.92,41.8,2022-03-04 10:13:55.994,4
335,6976,0.72,-1.0,-0.49,41.8,2022-03-04 10:13:56.093,4
336,7000,0.55,-0.92,0.44,41.8,2022-03-04 10:13:56.193,4
337,7020,0.58,-0.84,0.97,38.9,2022-03-04 10:13:56.293,4
338,7040,0.48,-0.87,-0.78,38.9,2022-03-04 10:13:56.391,4
339,7060,-0.71,-0.78,-0.68,38.9,2022-03-04 10:13:56.491,4
340,7082,0.95,-0.72,0.37,38.9,2022-03-04 10:13:56.590,4
341,7102,0.92,-0.76,-0.51,38.9,2022-03-04 10:13:56.690,4
342,7122,0.7,-0.78,-0.55,38.9,2022-03-04 10:13:56.789,4
343,7144,1.16,-0.83,-0.64,38.9,2022-03-04 10:13:56.897,4
344,7164,0.52,-0.69,-0.74,38.9,2022-03-04 10:13:56.997,4
345,7184,0.68,-0.75,-0.69,38.9,2022-03-04 10:13:57.096,4
346,7208,0.5,-0.76,0.54,38.9,2022-03-04 10:13:57.195,4
347,7228,0.69,-0.69,-0.59,36.4,2022-03-04 10:13:57.295,4
348,7248,0.88,-0.82,-0.63,36.4,2022-03-04 10:13:57.395,4
349,7268,0.53,-0.72,-0.97,36.4,2022-03-04 10:13:57.493,4
350,7290,0.61,-0.7,-1.01,36.4,2022-03-04 10:13:57.593,4
351,7310,1.12,-0.71,-0.64,36.4,2022-03-04 10:13:57.692,4
352,7330,0.67,-0.63,-0.44,36.4,2022-03-04 10:13:57.792,4
353,7350,0.49,-0.72,-0.55,36.4,2022-03-04 10:13:57.890,4
354,7370,1.04,-0.66,-0.38,36.4,2022-03-04 10:13:57.991,4
355,7390,1.15,-0.67,-0.52,36.4,2022-03-04 10:13:58.090,4
356,7416,0.98,-0.61,-0.91,36.4,2022-03-04 10:13:58.199,4
357,7434,0.73,-0.53,0.61,32.4,2022-03-04 10:13:58.287,4
358,7456,0.69,-0.4,-0.73,32.4,2022-03-04 10:13:58.397,4
359,7476,1.25,-0.32,0.35,32.4,2022-03-04 10:13:58.496,4
360,7498,0.92,-0.26,0.47,32.4,2022-03-04 10:13:58.595,4
361,7518,0.9,-0.24,0.81,32.4,2022-03-04 10:13:58.694,4
362,7538,1.37,-0.33,0.5,32.4,2022-03-04 10:13:58.794,4
363,7558,1.21,-0.34,-0.62,32.4,2022-03-04 10:13:58.893,4
364,7578,1.39,-0.21,-0.52,32.4,2022-03-04 10:13:58.992,4
365,7598,1.16,-0.21,-0.89,32.4,2022-03-04 10:13:59.091,4
366,7622,1.16,-0.32,-0.45,32.4,2022-03-04 10:13:59.191,4
367,7642,1.16,-0.21,0.31,29.5,2022-03-04 10:13:59.290,4
368,7662,0.98,-0.25,-0.83,29.5,2022-03-04 10:13:59.389,4
369,7684,1.49,-0.32,-0.59,29.5,2022-03-04 10:13:59.499,4
370,7706,1.24,-0.72,0.64,29.5,2022-03-04 10:13:59.598,4
371,7724,1.16,-0.86,-0.7,29.5,2022-03-04 10:13:59.688,4
372,7746,1.17,-0.98,-0.57,29.5,2022-03-04 10:13:59.796,4
373,7766,1.38,-0.71,-0.53,29.5,2022-03-04 10:13:59.898,4
374,7786,1.21,-0.87,-0.57,29.5,2022-03-04 10:13:59.995,4
375,7806,1.19,-0.83,-0.74,29.5,2022-03-04 10:14:00.094,7
376,7826,0.91,-0.79,-0.63,29.5,2022-03-04 10:14:00.193,7
377,7850,0.91,-0.59,-0.48,29.5,2022-03-04 10:14:00.292,7
378,7870,1.07,-0.5,-0.66,25.9,2022-03-04 10:14:00.391,7
379,7890,-0.74,-0.26,-0.79,25.9,2022-03-04 10:14:00.492,7
380,7912,-0.69,-0.36,-0.74,25.9,2022-03-04 10:14:00.590,7
381,7932,-0.72,-0.32,0.59,25.9,2022-03-04 10:14:00.689,7
382,7954,-1.02,-0.41,-0.47,25.9,2022-03-04 10:14:00.799,7
383,7972,-1.91,-0.24,-0.57,25.9,2022-03-04 10:14:00.888,7
384,7994,-1.38,-0.46,-0.76,25.9,2022-03-04 10:14:00.997,7
385,8014,-1.87,-0.48,-0.47,25.9,2022-03-04 10:14:01.098,7
386,8038,-1.95,-0.74,0.86,25.9,2022-03-04 10:14:01.196,7
387,8058,-2.24,-0.94,1.03,23.0,2022-03-04 10:14:01.298,7
388,8078,-2.44,-0.92,0.37,23.0,2022-03-04 10:14:01.398,7
389,8098,-2.58,-0.83,-0.41,23.0,2022-03-04 10:14:01.494,7
390,8120,-2.52,-0.63,-1.0,23.0,2022-03-04 10:14:01.593,7
391,8140,-3.01,-0.95,0.76,23.0,2022-03-04 10:14:01.692,7
392,8160,-2.77,-0.74,0.75,23.0,2022-03-04 10:14:01.791,7
393,8180,-3.2,-0.67,0.71,23.0,2022-03-04 10:14:01.890,7
394,8202,-3.18,-0.82,0.82,23.0,2022-03-04 10:14:01.999,7
395,8220,-3.28,-0.8,-0.48,23.0,2022-03-04 10:14:02.090,7
396,8246,-3.4,-0.87,0.79,23.0,2022-03-04 10:14:02.198,7
397,8266,-2.94,-0.79,0.43,22.3,2022-03-04 10:14:02.298,7
398,8284,-2.55,-0.69,-0.47,22.3,2022-03-04 10:14:02.387,7
399,8306,-2.74,-0.82,0.46,22.3,2022-03-04 10:14:02.498,7
400,8328,-2.64,-0.56,0.43,22.3,2022-03-04 10:14:02.597,7
401,8348,-2.86,-0.44,-0.65,22.3,2022-03-04 10:14:02.697,7
402,8368,-2.36,-0.57,0.65,22.3,2022-03-04 10:14:02.794,7
403,8388,-2.49,-0.5,0.45,22.3,2022-03-04 10:14:02.897,7
404,8408,-2.6,-0.45,0.44,22.3,2022-03-04 10:14:02.994,7
405,8428,-2.39,-0.57,-0.62,22.3,2022-03-04 10:14:03.092,7
406,8452,-2.63,-0.7,-0.46,22.3,2022-03-04 10:14:03.191,7
407,8472,-2.92,-0.72,0.5,19.8,2022-03-04 10:14:03.290,7
408,8494,-2.94,-0.78,-0.69,19.8,2022-03-04 10:14:03.399,7
409,8514,-2.35,-0.92,0.69,19.8,2022-03-04 10:14:03.499,7
410,8536,-2.49,-0.82,-0.64,19.8,2022-03-04 10:14:03.598,7
411,8556,-2.33,-0.67,-0.37,19.8,2022-03-04 10:14:03.698,7
412,8576,-2.16,-0.57,-0.59,19.8,2022-03-04 10:14:03.797,7
413,8596,-2.35,-0.8,-0.49,19.8,2022-03-04 10:14:03.896,7
414,8616,-2.34,-0.63,0.44,19.8,2022-03-04 10:14:03.997,7
415,8636,-2.3,-0.7,0.48,19.8,2022-03-04 10:14:04.096,7
416,8656,-2.4,-0.62,0.94,19.8,2022-03-04 10:14:04.195,7
417,8680,-2.44,-0.57,0.54,19.8,2022-03-04 10:14:04.295,7
418,8700,-2.44,-0.52,-0.5,18.4,2022-03-04 10:14:04.392,7
419,8720,-2.37,-0.61,0.68,18.4,2022-03-04 10:14:04.491,7
420,8742,-2.66,-0.72,0.74,18.4,2022-03-04 10:14:04.590,7
421,8762,-2.38,-0.76,-0.69,18.4,2022-03-04 10:14:04.690,7
422,8784,-2.6,-1.17,-0.87,18.4,2022-03-04 10:14:04.799,7
423,8804,-2.6,-1.25,-0.76,18.4,2022-03-04 10:14:04.899,7
424,8824,-2.59,-1.26,-0.6,18.4,2022-03-04 10:14:04.998,7
425,8844,-2.66,-1.45,-0.72,18.4,2022-03-04 10:14:05.097,7
426,8864,-2.9,-1.6,0.59,18.4,2022-03-04 10:14:05.196,7
427,8888,-3.14,-1.71,-0.88,18.4,2022-03-04 10:14:05.295,7
428,8908,-2.88,-1.85,-0.61,16.9,2022-03-04 10:14:05.395,7
429,8928,-3.13,-1.87,-0.68,16.9,2022-03-04 10:14:05.495,7
430,8950,-3.05,-1.88,-0.46,16.9,2022-03-04 10:14:05.594,7
431,8970,-3.36,-1.95,0.76,16.9,2022-03-04 10:14:05.694,7
432,8990,-2.74,-1.97,0.83,16.9,2022-03-04 10:14:05.794,7
433,9010,-3.27,-1.94,0.72,16.9,2022-03-04 10:14:05.891,7
434,9030,-3.31,-1.79,-0.73,16.9,2022-03-04 10:14:05.990,7
435,9050,-3.52,-1.99,-0.98,16.9,2022-03-04 10:14:06.091,7
436,9072,-3.65,-2.04,1.64,16.9,2022-03-04 10:14:06.192,7
437,9096,-3.6,-2.15,-0.71,16.9,2022-03-04 10:14:06.298,7
438,9116,-3.21,-2.22,-1.28,16.9,2022-03-04 10:14:06.397,7
439,9136,-3.25,-1.96,-0.81,16.9,2022-03-04 10:14:06.497,7
440,9158,-3.66,-2.06,0.91,16.9,2022-03-04 10:14:06.596,7
441,9178,-3.29,-2.31,0.97,16.9,2022-03-04 10:14:06.695,7
442,9198,-3.26,-1.99,-1.06,16.9,2022-03-04 10:14:06.794,7
443,9218,-3.57,-2.02,0.59,16.9,2022-03-04 10:14:06.894,7
444,9238,-3.31,-1.84,0.88,16.9,2022-03-04 10:14:06.994,7
445,9258,-3.89,-1.78,0.76,16.9,2022-03-04 10:14:07.094,7
446,9282,-3.86,-1.55,0.95,18.4,2022-03-04 10:14:07.194,7
447,9302,-4.08,-1.66,0.91,18.4,2022-03-04 10:14:07.291,7
448,9322,-3.67,-1.8,1.73,18.4,2022-03-04 10:14:07.390,7
449,9344,-2.94,-1.68,0.84,18.4,2022-03-04 10:14:07.499,7
450,9366,-3.15,-1.55,0.92,18.4,2022-03-04 10:14:07.598,7
451,9386,-3.15,-1.33,1.2,18.4,2022-03-04 10:14:07.698,7
452,9406,-2.71,-1.15,-1.5,18.4,2022-03-04 10:14:07.797,7
453,9426,-1.78,-1.19,-1.14,18.4,2022-03-04 10:14:07.897,7
454,9446,-1.69,-1.19,-1.02,18.4,2022-03-04 10:14:07.997,7
455,9466,-1.0,-1.14,0.92,18.4,2022-03-04 10:14:08.094,7
456,9490,-0.85,-1.11,-0.51,18.4,2022-03-04 10:14:08.195,7
457,9510,-0.82,-1.21,-0.87,18.0,2022-03-04 10:14:08.293,7
458,9530,-0.93,-0.9,-0.72,18.0,2022-03-04 10:14:08.393,7
459,9550,-0.85,-0.8,-0.69,18.0,2022-03-04 10:14:08.492,7
460,9572,-0.99,-0.84,0.76,18.0,2022-03-04 10:14:08.592,7
461,9592,-0.88,-0.92,-0.72,18.0,2022-03-04 10:14:08.690,7
462,9614,-0.63,-0.78,-0.39,18.0,2022-03-04 10:14:08.799,7
463,9634,0.46,-0.75,-0.73,18.0,2022-03-04 10:14:08.899,7
464,9654,-0.36,-0.86,-0.59,18.0,2022-03-04 10:14:08.998,7
465,9674,0.86,-0.83,-0.47,18.0,2022-03-04 10:14:09.098,7
466,9694,1.03,-0.82,-0.4,18.0,2022-03-04 10:14:09.197,7
467,9718,0.68,-0.64,0.49,24.5,2022-03-04 10:14:09.296,7
468,9738,0.77,-0.86,-0.74,24.5,2022-03-04 10:14:09.395,1
469,9758,0.63,-0.66,0.76,24.5,2022-03-04 10:14:09.494,1
470,9780,0.73,-0.73,0.58,24.5,2022-03-04 10:14:09.594,1
471,9800,1.11,-0.5,0.41,24.5,2022-03-04 10:14:09.693,1
472,9820,1.29,-0.68,-0.5,24.5,2022-03-04 10:14:09.792,1
473,9840,1.24,-0.57,-0.93,24.5,2022-03-04 10:14:09.892,1
474,9860,1.23,-0.44,-0.63,24.5,2022-03-04 10:14:09.992,1
475,9880,1.2,-0.38,0.65,24.5,2022-03-04 10:14:10.092,1
476,9906,1.04,-0.43,0.87,24.5,2022-03-04 10:14:10.199,1
477,9926,1.32,-0.25,0.64,20.5,2022-03-04 10:14:10.298,1
478,9946,1.21,-0.36,-0.64,20.5,2022-03-04 10:14:10.397,1
479,9966,1.3,-0.58,0.47,20.5,2022-03-04 10:14:10.497,1
480,9988,1.35,-0.35,-0.62,20.5,2022-03-04 10:14:10.596,1
481,10008,1.24,-0.28,0.73,20.5,2022-03-04 10:14:10.695,1
482,10028,0.97,-0.39,-0.84,20.5,2022-03-04 10:14:10.794,1
483,10048,1.51,-0.47,-0.89,20.5,2022-03-04 10:14:10.894,1
484,10068,1.2,-0.32,0.45,20.5,2022-03-04 10:14:10.994,1
485,10088,1.4,-0.36,-0.84,20.5,2022-03-04 10:14:11.095,1
486,10112,1.36,0.49,-0.99,22.7,2022-03-04 10:14:11.192,1
487,10132,1.87,-0.32,-1.01,22.7,2022-03-04 10:14:11.292,1
488,10152,1.13,-0.56,-0.82,22.7,2022-03-04 10:14:11.392,1
489,10174,1.37,-0.35,-0.74,22.7,2022-03-04 10:14:11.499,1
490,10196,1.28,0.4,0.59,22.7,2022-03-04 10:14:11.598,1
491,10214,1.4,-0.37,0.88,22.7,2022-03-04 10:14:11.692,1
492,10236,1.4,-0.48,-1.12,22.7,2022-03-04 10:14:11.797,1
493,10256,1.23,0.31,1.0,22.7,2022-03-04 10:14:11.896,1
494,10276,0.94,-0.43,1.01,22.7,2022-03-04 10:14:11.996,1
495,10296,1.23,-0.41,0.74,22.7,2022-03-04 10:14:12.095,1
496,10316,1.04,-0.58,-1.04,22.7,2022-03-04 10:14:12.198,1
497,10340,1.2,-0.65,1.34,24.5,2022-03-04 10:14:12.294,1
498,10360,1.65,-0.29,-1.11,24.5,2022-03-04 10:14:12.393,1
499,10380,1.22,-0.28,-0.58,24.5,2022-03-04 10:14:12.493,1
500,10402,1.14,-0.4,-0.47,24.5,2022-03-04 10:14:12.599,1
501,10422,1.06,-0.41,-1.0,24.5,2022-03-04 10:14:12.698,1
502,10440,0.91,0.26,-0.92,24.5,2022-03-04 10:14:12.780,1
503,10464,0.92,0.3,-0.9,24.5,2022-03-04 10:14:12.899,1
504,10484,1.34,-0.45,1.25,24.5,2022-03-04 10:14:12.999,1
505,10504,0.76,-0.31,-0.64,24.5,2022-03-04 10:14:13.097,1
506,10524,0.64,-0.29,-1.03,24.5,2022-03-04 10:14:13.197,1
507,10544,0.88,-0.22,-0.75,24.5,2022-03-04 10:14:13.299,1
508,10568,1.24,-0.41,0.99,27.4,2022-03-04 10:14:13.395,1
509,10588,0.86,-0.45,0.93,27.4,2022-03-04 10:14:13.495,1
510,10610,1.14,0.28,-1.04,27.4,2022-03-04 10:14:13.594,1
511,10630,0.69,-0.23,-0.9,27.4,2022-03-04 10:14:13.693,1
512,10650,1.61,-0.64,1.16,27.4,2022-03-04 10:14:13.793,1
513,10670,0.86,-0.36,-1.07,27.4,2022-03-04 10:14:13.892,1
514,10690,0.91,-0.27,1.56,27.4,2022-03-04 10:14:13.991,1
515,10710,1.17,-0.37,0.93,27.4,2022-03-04 10:14:14.091,1
516,10736,0.75,0.24,1.21,31.3,2022-03-04 10:14:14.199,1
517,10756,1.06,-0.46,1.53,31.3,2022-03-04 10:14:14.299,1
518,10776,1.15,-0.48,-1.04,31.3,2022-03-04 10:14:14.398,1
519,10796,0.86,-1.34,1.06,31.3,2022-03-04 10:14:14.497,1
520,10818,0.91,-1.43,-0.82,31.3,2022-03-04 10:14:14.596,1
521,10838,0.75,-1.27,-0.77,31.3,2022-03-04 10:14:14.695,1
522,10858,0.82,-1.32,-0.52,31.3,2022-03-04 10:14:14.795,1
523,10878,0.72,-1.14,0.47,31.3,2022-03-04 10:14:14.894,1
524,10898,1.03,-1.22,-0.4,31.3,2022-03-04 10:14:14.993,1
525,10918,0.8,-1.39,0.45,31.3,2022-03-04 10:14:15.093,1
526,10938,0.71,-1.06,-0.55,31.3,2022-03-04 10:14:15.192,1
527,10962,0.65,-1.16,0.66,32.8,2022-03-04 10:14:15.291,1
528,10982,0.83,0.45,-0.9,32.8,2022-03-04 10:14:15.390,1
529,11002,1.12,0.57,-0.98,32.8,2022-03-04 10:14:15.490,1
530,11026,-0.63,0.4,-0.73,32.8,2022-03-04 10:14:15.599,1
531,11046,-0.96,-0.46,-0.94,32.8,2022-03-04 10:14:15.698,1
532,11066,0.93,-0.5,-0.8,32.8,2022-03-04 10:14:15.797,1
533,11086,-0.51,-0.37,1.23,32.8,2022-03-04 10:14:15.896,1
534,11106,-0.94,0.4,0.86,32.8,2022-03-04 10:14:15.996,1
535,11126,0.88,0.44,-1.2,32.8,2022-03-04 10:14:16.096,1
536,11150,0.53,0.5,1.07,35.3,2022-03-04 10:14:16.194,1
537,11170,1.1,0.58,1.35,35.3,2022-03-04 10:14:16.294,1
538,11190,1.06,0.58,-1.17,35.3,2022-03-04 10:14:16.393,1
539,11210,0.99,0.56,1.31,35.3,2022-03-04 10:14:16.494,1
540,11232,0.77,0.8,-1.28,35.3,2022-03-04 10:14:16.591,1
541,11252,0.86,0.56,-1.43,35.3,2022-03-04 10:14:16.691,1
542,11272,-0.71,0.72,-1.17,35.3,2022-03-04 10:14:16.790,1
543,11294,0.53,0.9,1.25,35.3,2022-03-04 10:14:16.899,1
544,11314,0.82,0.7,1.42,35.3,2022-03-04 10:14:16.998,1
545,11334,0.73,0.78,-1.44,35.3,2022-03-04 10:14:17.099,1
546,11358,1.61,0.61,-1.27,38.9,2022-03-04 10:14:17.197,1
547,11378,1.15,0.98,-1.27,38.9,2022-03-04 10:14:17.296,1
548,11398,2.0,0.51,-1.46,38.9,2022-03-04 10:14:17.395,1
549,11418,0.8,0.57,-1.17,38.9,2022-03-04 10:14:17.495,1
550,11440,1.17,-0.75,-1.48,38.9,2022-03-04 10:14:17.594,1
551,11460,1.02,-0.51,1.54,38.9,2022-03-04 10:14:17.693,1
552,11480,1.65,-0.51,-1.69,38.9,2022-03-04 10:14:17.793,1
553,11500,1.31,-0.59,1.15,38.9,2022-03-04 10:14:17.891,1
554,11520,1.13,-0.76,0.84,38.9,2022-03-04 10:14:17.992,1
555,11540,1.73,-0.67,1.72,38.9,2022-03-04 10:14:18.091,1
556,11560,1.21,-0.83,1.09,38.9,2022-03-04 10:14:18.190,1
557,11586,1.55,-0.45,-0.98,41.8,2022-03-04 10:14:18.299,1
558,11606,0.89,-0.57,1.17,41.8,2022-03-04 10:14:18.399,1
559,11626,1.27,0.55,1.26,41.8,2022-03-04 10:14:18.497,1
560,11648,1.56,-0.54,-1.88,41.8,2022-03-04 10:14:18.599,1
561,11668,1.07,0.56,1.27,41.8,2022-03-04 10:14:18.696,1
562,11688,1.21,0.37,-1.16,41.8,2022-03-04 10:14:18.795,1
563,11708,1.21,0.54,2.23,41.8,2022-03-04 10:14:18.894,1
564,11728,1.47,0.82,1.48,41.8,2022-03-04 10:14:18.994,1
565,11748,1.31,-0.35,-0.83,41.8,2022-03-04 10:14:19.093,1
566,11768,0.72,-0.43,1.53,41.8,2022-03-04 10:14:19.195,1
567,11792,1.4,0.63,1.6,43.9,2022-03-04 10:14:19.292,1
568,11812,0.59,-0.67,-1.19,43.9,2022-03-04 10:14:19.391,1
569,11832,0.97,-0.62,-0.68,43.9,2022-03-04 10:14:19.490,1
570,11856,0.66,-0.91,-0.98,43.9,2022-03-04 10:14:19.599,1
571,11876,0.69,-0.77,0.65,43.9,2022-03-04 10:14:19.699,1
572,11896,0.79,-0.72,-0.53,43.9,2022-03-04 10:14:19.798,1
573,11916,0.55,-0.62,1.35,43.9,2022-03-04 10:14:19.897,1
574,11936,0.99,-0.72,0.98,43.9,2022-03-04 10:14:19.996,1
575,11956,0.88,-0.73,-1.21,43.9,2022-03-04 10:14:20.096,1
576,11980,1.1,-0.83,-1.17,45.4,2022-03-04 10:14:20.196,1
577,12000,0.89,-0.5,-0.8,45.4,2022-03-04 10:14:20.294,1
578,12020,1.06,-0.93,-0.67,45.4,2022-03-04 10:14:20.394,1
579,12040,1.04,-0.65,-0.92,45.4,2022-03-04 10:14:20.496,1
580,12062,0.99,-1.34,0.84,45.4,2022-03-04 10:14:20.592,1
581,12082,0.6,-1.3,0.72,45.4,2022-03-04 10:14:20.691,1
582,12102,0.7,-1.23,0.46,45.4,2022-03-04 10:14:20.790,1
583,12122,0.61,-1.0,-0.83,45.4,2022-03-04 10:14:20.890,1
584,12144,0.94,-1.2,-1.29,45.4,2022-03-04 10:14:20.999,1
585,12162,0.94,-1.17,-0.85,45.4,2022-03-04 10:14:21.088,1
586,12188,0.92,-1.11,-0.87,45.7,2022-03-04 10:14:21.198,1
587,12208,0.7,-1.13,-0.64,45.7,2022-03-04 10:14:21.296,1
588,12228,1.06,-1.04,0.62,45.7,2022-03-04 10:14:21.396,1
589,12248,0.48,-1.19,-0.43,45.7,2022-03-04 10:14:21.495,1
590,12270,0.97,-1.24,0.73,45.7,2022-03-04 10:14:21.594,1
591,12290,0.9,-1.1,-0.52,45.7,2022-03-04 10:14:21.694,1
592,12310,0.62,-0.77,-0.56,45.7,2022-03-04 10:14:21.793,1
593,12330,0.31,-0.54,-1.02,45.7,2022-03-04 10:14:21.892,1
594,12350,0.4,-0.38,1.46,45.7,2022-03-04 10:14:21.991,1
595,12370,0.98,-0.24,-0.84,45.7,2022-03-04 10:14:22.091,1
596,12394,0.53,0.37,-0.9,46.4,2022-03-04 10:14:22.195,1
597,12414,0.89,-0.69,-0.81,46.4,2022-03-04 10:14:22.290,1
598,12434,0.7,-0.45,-1.29,46.4,2022-03-04 10:14:22.388,1
599,12456,0.56,-0.54,-1.1,46.4,2022-03-04 10:14:22.498,1
600,12478,0.9,-0.52,-1.09,46.4,2022-03-04 10:14:22.599,1
601,12498,0.67,-0.66,-0.73,46.4,2022-03-04 10:14:22.696,1
602,12518,-0.48,-0.49,1.26,46.4,2022-03-04 10:14:22.795,1
603,12538,1.18,-0.7,-0.9,46.4,2022-03-04 10:14:22.895,1
604,12558,0.99,0.28,1.82,46.4,2022-03-04 10:14:22.994,1
605,12578,0.74,0.35,-0.87,46.4,2022-03-04 10:14:23.094,1
606,12598,-1.02,-0.38,-0.8,46.4,2022-03-04 10:14:23.194,1
607,12622,-0.64,-0.46,-1.25,48.2,2022-03-04 10:14:23.292,1
608,12642,-0.9,-0.34,-1.25,48.2,2022-03-04 10:14:23.392,1
609,12662,0.59,-0.52,-0.82,48.2,2022-03-04 10:14:23.490,10
610,12684,0.41,-0.6,-0.93,48.2,2022-03-04 10:14:23.589,10
611,12704,0.55,-0.52,-0.76,48.2,2022-03-04 10:14:23.689,10
612,12726,-0.65,-0.75,-0.91,48.2,2022-03-04 10:14:23.799,10
613,12744,1.07,-0.7,0.87,48.2,2022-03-04 10:14:23.888,4
614,12766,0.49,-0.73,0.96,48.2,2022-03-04 10:14:23.997,4
615,12786,-1.27,-0.73,-1.72,48.2,2022-03-04 10:14:24.096,4
616,12805,1.25,-0.78,-1.25,49.3,2022-03-04 10:14:24.186,4
617,12830,0.82,-0.97,0.56,49.3,2022-03-04 10:14:24.294,4
618,12850,0.62,-1.15,1.15,49.3,2022-03-04 10:14:24.394,4
619,12870,0.47,-1.13,0.47,49.3,2022-03-04 10:14:24.493,4
620,12892,0.71,-0.95,-0.66,49.3,2022-03-04 10:14:24.592,4
621,12912,0.9,-1.02,0.81,49.3,2022-03-04 10:14:24.691,4
622,12932,1.0,-1.35,-1.23,49.3,2022-03-04 10:14:24.791,4
623,12952,0.86,-1.41,-0.73,49.3,2022-03-04 10:14:24.890,4
624,12974,1.02,-1.51,-0.89,49.3,2022-03-04 10:14:24.999,4
625,12992,0.83,-1.4,0.45,49.3,2022-03-04 10:14:25.088,4
626,13018,0.69,-1.4,0.44,49.3,2022-03-04 10:14:25.197,4
627,13038,0.71,-1.41,-1.21,48.2,2022-03-04 10:14:25.299,4
628,13058,0.63,-1.52,0.75,48.2,2022-03-04 10:14:25.398,4
629,13078,0.83,-1.64,-0.59,48.2,2022-03-04 10:14:25.495,4
630,13100,0.66,-1.66,-0.62,48.2,2022-03-04 10:14:25.595,4
631,13120,0.92,-1.67,-0.62,48.2,2022-03-04 10:14:25.694,4
632,13140,0.72,-1.75,0.65,48.2,2022-03-04 10:14:25.793,4
633,13160,0.54,-1.75,-0.48,48.2,2022-03-04 10:14:25.892,4
634,13180,0.58,-1.77,1.07,48.2,2022-03-04 10:14:25.992,4
635,13200,1.33,-1.87,-1.5,48.2,2022-03-04 10:14:26.091,4
636,13224,0.56,-1.84,-1.29,48.2,2022-03-04 10:14:26.190,4
637,13244,-0.77,-1.76,-1.11,45.4,2022-03-04 10:14:26.290,4
638,13266,0.52,-1.87,-0.63,45.4,2022-03-04 10:14:26.399,4
639,13284,0.81,-1.82,-0.81,45.4,2022-03-04 10:14:26.488,4
640,13308,1.01,-1.76,0.46,45.4,2022-03-04 10:14:26.599,4
641,13328,0.68,-1.86,0.92,45.4,2022-03-04 10:14:26.698,4
642,13348,0.84,-1.99,-0.77,45.4,2022-03-04 10:14:26.797,4
643,13368,0.73,-1.94,0.59,45.4,2022-03-04 10:14:26.895,4
644,13388,0.98,-1.99,0.51,45.4,2022-03-04 10:14:26.994,4
645,13408,1.23,-1.88,-0.97,45.4,2022-03-04 10:14:27.094,4
646,13432,0.76,-2.03,-0.89,45.4,2022-03-04 10:14:27.194,4
647,13452,1.1,-1.68,-1.12,41.8,2022-03-04 10:14:27.295,4
648,13472,1.38,-1.82,-0.64,41.8,2022-03-04 10:14:27.391,4
649,13492,1.22,-1.73,0.94,41.8,2022-03-04 10:14:27.491,4
650,13514,0.83,-1.69,1.27,41.8,2022-03-04 10:14:27.590,4
651,13536,0.9,-1.49,-1.38,41.8,2022-03-04 10:14:27.699,4
652,13556,0.71,-1.65,1.22,41.8,2022-03-04 10:14:27.799,4
653,13576,0.89,-1.34,1.07,41.8,2022-03-04 10:14:27.899,4
654,13596,0.94,-1.45,-1.4,41.8,2022-03-04 10:14:27.997,4
655,13616,0.44,-1.31,0.97,41.8,2022-03-04 10:14:28.098,4
656,13640,-0.55,-1.34,-0.36,41.8,2022-03-04 10:14:28.197,4
657,13660,-0.76,-1.3,-0.46,38.2,2022-03-04 10:14:28.295,4
658,13680,0.47,-1.25,0.71,38.2,2022-03-04 10:14:28.397,4
659,13700,0.34,-1.36,-0.76,38.2,2022-03-04 10:14:28.493,4
660,13722,-0.58,-1.37,-0.88,38.2,2022-03-04 10:14:28.593,4
661,13742,0.39,-1.27,0.82,38.2,2022-03-04 10:14:28.692,4
662,13762,0.59,-1.34,0.49,38.2,2022-03-04 10:14:28.791,4
663,13782,0.43,-1.08,-1.07,38.2,2022-03-04 10:14:28.890,4
664,13802,-0.65,-1.21,-1.12,38.2,2022-03-04 10:14:28.990,4
665,13822,0.44,-1.27,0.41,38.2,2022-03-04 10:14:29.089,4
666,13848,0.49,-1.09,0.47,38.2,2022-03-04 10:14:29.199,4
667,13868,0.38,-1.22,0.53,34.9,2022-03-04 10:14:29.297,4
668,13888,0.27,-0.92,-0.66,34.9,2022-03-04 10:14:29.398,4
669,13906,-0.44,-1.06,-0.72,34.9,2022-03-04 10:14:29.485,4
670,13930,0.52,-0.99,0.65,34.9,2022-03-04 10:14:29.595,4
671,13950,-0.32,-0.94,0.57,34.9,2022-03-04 10:14:29.695,4
672,13970,0.31,-0.88,-0.47,34.9,2022-03-04 10:14:29.795,4
673,13990,0.62,-0.96,-0.55,34.9,2022-03-04 10:14:29.892,4
674,14010,0.39,-0.66,-0.83,34.9,2022-03-04 10:14:29.992,4
675,14030,0.31,-0.63,-0.57,34.9,2022-03-04 10:14:30.092,4
676,14050,0.53,-0.51,0.51,34.9,2022-03-04 10:14:30.191,4
677,14074,0.31,-0.64,-0.83,34.9,2022-03-04 10:14:30.295,4
678,14094,0.21,-0.7,-0.74,31.7,2022-03-04 10:14:30.390,4
679,14116,0.56,-0.61,0.56,31.7,2022-03-04 10:14:30.498,4
680,14138,-0.25,-0.61,-0.62,31.7,2022-03-04 10:14:30.597,4
681,14158,0.52,-0.68,-0.5,31.7,2022-03-04 10:14:30.697,4
682,14178,-0.2,-0.48,-0.56,31.7,2022-03-04 10:14:30.796,4
683,14196,-0.38,-0.53,-0.52,31.7,2022-03-04 10:14:30.885,4
684,14218,-0.28,-0.54,0.56,31.7,2022-03-04 10:14:30.995,4
685,14238,0.46,-0.56,-0.33,31.7,2022-03-04 10:14:31.094,4
686,14262,0.76,-0.47,0.6,31.7,2022-03-04 10:14:31.198,4
687,14282,0.7,-0.45,-0.57,28.8,2022-03-04 10:14:31.294,4
688,14302,-0.47,-0.37,-1.12,28.8,2022-03-04 10:14:31.392,4
689,14322,0.29,-0.51,0.52,28.8,2022-03-04 10:14:31.491,4
690,14344,0.6,-0.63,0.69,28.8,2022-03-04 10:14:31.590,4
691,14364,0.41,-0.58,-0.54,28.8,2022-03-04 10:14:31.689,4
692,14386,-0.39,-0.44,-1.22,28.8,2022-03-04 10:14:31.799,4
693,14406,0.47,-0.54,-0.94,28.8,2022-03-04 10:14:31.898,4
694,14426,0.34,-0.54,0.81,28.8,2022-03-04 10:14:31.997,4
695,14444,0.44,-0.51,0.58,28.8,2022-03-04 10:14:32.088,4
696,14470,0.42,-0.48,-0.7,28.8,2022-03-04 10:14:32.196,4
697,14490,-0.62,-0.41,-1.05,25.2,2022-03-04 10:14:32.296,4
698,14510,-0.32,-0.55,-0.67,25.2,2022-03-04 10:14:32.394,4
699,14530,0.56,-0.58,0.63,25.2,2022-03-04 10:14:32.494,4
700,14552,0.45,-0.6,0.72,25.2,2022-03-04 10:14:32.593,4
701,14572,0.38,-0.61,0.68,25.2,2022-03-04 10:14:32.693,4
702,14592,0.29,-0.54,-1.04,25.2,2022-03-04 10:14:32.791,4
703,14612,-0.31,-0.56,-0.94,25.2,2022-03-04 10:14:32.891,4
704,14632,0.32,-0.57,0.32,25.2,2022-03-04 10:14:32.990,4
705,14654,0.35,-0.62,0.65,25.2,2022-03-04 10:14:33.099,4
706,14674,0.41,-0.67,0.43,25.2,2022-03-04 10:14:33.193,4
707,14698,0.31,-0.65,-0.72,22.0,2022-03-04 10:14:33.297,4
708,14718,0.34,-0.51,-0.97,22.0,2022-03-04 10:14:33.397,4
709,14738,-0.24,-0.59,-0.76,22.0,2022-03-04 10:14:33.497,4
710,14760,0.32,-0.49,0.36,22.0,2022-03-04 10:14:33.595,4
711,14780,0.37,-0.55,0.64,22.0,2022-03-04 10:14:33.695,4
712,14800,0.42,-0.63,0.37,22.0,2022-03-04 10:14:33.795,4
713,14820,0.48,-0.49,-0.63,22.0,2022-03-04 10:14:33.893,4
714,14840,-0.28,-0.6,-0.94,22.0,2022-03-04 10:14:33.995,4
715,14860,-0.38,-0.62,-0.66,22.0,2022-03-04 10:14:34.094,4
716,14882,0.37,-0.55,0.22,22.0,2022-03-04 10:14:34.196,4
717,14904,0.31,-0.7,0.41,18.4,2022-03-04 10:14:34.290,4
718,14926,0.58,-0.58,0.33,18.4,2022-03-04 10:14:34.399,4
719,14946,0.25,-0.68,-0.58,18.4,2022-03-04 10:14:34.498,4
720,14968,0.3,-0.9,-0.47,18.4,2022-03-04 10:14:34.598,4
721,14988,0.48,-0.93,-0.54,18.4,2022-03-04 10:14:34.698,4
722,15008,0.34,-0.85,-0.55,18.4,2022-03-04 10:14:34.797,4
723,15028,0.29,-0.86,-0.42,18.4,2022-03-04 10:14:34.895,4
724,15048,-0.28,-0.97,-0.42,18.4,2022-03-04 10:14:34.996,4
725,15068,0.3,-0.89,-0.39,18.4,2022-03-04 10:14:35.095,4
726,15088,0.52,-0.93,-0.47,18.4,2022-03-04 10:14:35.193,4
727,15112,0.52,-0.96,-0.41,14.4,2022-03-04 10:14:35.293,4
728,15132,0.59,-0.9,-0.35,14.4,2022-03-04 10:14:35.393,4
729,15152,0.45,-0.94,-0.35,14.4,2022-03-04 10:14:35.492,4
730,15174,0.24,-0.94,-0.29,14.4,2022-03-04 10:14:35.592,4
731,15196,0.39,-0.93,-0.22,14.4,2022-03-04 10:14:35.699,4
732,15216,0.26,-0.94,-0.73,14.4,2022-03-04 10:14:35.799,4
733,15236,-0.34,-0.91,-0.54,14.4,2022-03-04 10:14:35.898,4
734,15256,0.32,-0.98,-0.36,14.4,2022-03-04 10:14:35.997,4
735,15276,0.43,-0.91,0.19,14.4,2022-03-04 10:14:36.096,4
736,15296,0.27,-0.94,-0.4,14.4,2022-03-04 10:14:36.196,4
737,15320,0.22,-0.88,-0.33,14.4,2022-03-04 10:14:36.295,4
738,15340,-0.17,-0.93,-0.43,9.0,2022-03-04 10:14:36.394,4
739,15360,0.19,-0.96,-0.35,9.0,2022-03-04 10:14:36.494,4
740,15382,0.19,-0.94,-0.39,9.0,2022-03-04 10:14:36.593,4
741,15402,0.21,-0.94,0.24,9.0,2022-03-04 10:14:36.695,4
742,15422,0.21,-0.87,-0.34,9.0,2022-03-04 10:14:36.794,4
743,15442,-0.2,-0.38,-0.39,9.0,2022-03-04 10:14:36.891,4
744,15462,-0.29,-0.32,-0.38,9.0,2022-03-04 10:14:36.991,4
745,15484,0.18,-0.33,-0.2,9.0,2022-03-04 10:14:37.099,4
746,15508,-0.19,-0.36,-0.36,9.0,2022-03-04 10:14:37.199,4
747,15528,-0.17,0.23,-0.36,4.0,2022-03-04 10:14:37.299,4
748,15548,-0.26,0.13,-0.29,4.0,2022-03-04 10:14:37.397,4
749,15568,-0.18,0.18,-0.28,4.0,2022-03-04 10:14:37.496,4
750,15590,-0.27,0.17,-0.21,4.0,2022-03-04 10:14:37.595,4
751,15610,-0.22,0.22,-0.24,4.0,2022-03-04 10:14:37.695,4
752,15630,-0.27,0.38,-0.26,4.0,2022-03-04 10:14:37.794,4
753,15650,-0.21,0.68,-0.23,4.0,2022-03-04 10:14:37.895,4
754,15670,-0.32,1.09,-0.22,4.0,2022-03-04 10:14:37.993,4
755,15690,-0.25,1.18,-0.27,4.0,2022-03-04 10:14:38.092,4
756,15710,-0.34,1.24,-0.28,4.0,2022-03-04 10:14:38.193,4
757,15734,-0.31,1.1,-0.23,4.0,2022-03-04 10:14:38.290,4
758,15756,-0.31,0.95,-0.22,1.4,2022-03-04 10:14:38.399,4
759,15774,-0.23,0.84,-0.29,1.4,2022-03-04 10:14:38.490,4
760,15798,-0.29,0.92,-0.23,1.4,2022-03-04 10:14:38.599,4
761,15818,-0.28,1.01,-0.25,1.4,2022-03-04 10:14:38.697,0
762,15838,-0.31,1.01,-0.25,1.4,2022-03-04 10:14:38.796,0
763,15858,-0.39,0.9,-0.27,1.4,2022-03-04 10:14:38.898,0
764,15878,-0.28,1.0,-0.21,1.4,2022-03-04 10:14:38.996,0
765,15898,-0.24,1.0,-0.33,1.4,2022-03-04 10:14:39.098,0
766,15922,-0.31,0.97,-0.22,1.4,2022-03-04 10:14:39.195,0
767,15942,-0.22,1.01,-0.41,1.4,2022-03-04 10:14:39.294,0
768,15962,-0.29,0.95,-0.28,1.4,2022-03-04 10:14:39.392,0
769,15982,-0.35,0.97,-0.45,1.4,2022-03-04 10:14:39.492,0
770,16004,-0.22,0.95,-0.28,1.4,2022-03-04 10:14:39.590,0
771,16024,-0.27,0.98,-0.26,1.4,2022-03-04 10:14:39.691,0
772,16044,-0.24,0.94,-0.21,1.4,2022-03-04 10:14:39.791,0
773,16066,-0.17,0.98,-0.31,1.4,2022-03-04 10:14:39.898,0
774,16086,-0.22,1.01,-0.3,1.4,2022-03-04 10:14:39.998,0
775,16106,-0.29,0.97,-0.29,1.4,2022-03-04 10:14:40.098,0
776,16124,-0.32,0.93,-0.27,1.4,2022-03-04 10:14:40.177,0
