,LineNumber,Accel_X,Accel_Y,Accel_Z,Velocity,RealTime,Label
0,26,-0.2,0.43,0.24,0.0,2022-03-04 10:17:47.597,0
1,48,-0.16,0.42,-0.23,0.0,2022-03-04 10:17:47.697,0
2,68,-0.18,0.36,-0.26,0.0,2022-03-04 10:17:47.794,0
3,88,-0.12,0.36,-0.23,0.0,2022-03-04 10:17:47.893,0
4,108,-0.19,0.31,-0.29,0.0,2022-03-04 10:17:47.992,0
5,128,-0.17,0.3,-0.25,0.0,2022-03-04 10:17:48.092,0
6,148,-0.24,0.29,-0.33,0.0,2022-03-04 10:17:48.196,0
7,172,-0.2,0.27,-0.27,0.0,2022-03-04 10:17:48.290,0
8,192,0.21,0.21,-0.2,0.0,2022-03-04 10:17:48.389,0
9,214,-0.18,0.23,-0.3,0.0,2022-03-04 10:17:48.499,0
10,236,-0.21,0.21,-0.22,0.0,2022-03-04 10:17:48.599,0
11,256,-0.16,0.21,-0.24,0.0,2022-03-04 10:17:48.698,0
12,276,-0.23,0.17,-0.31,0.0,2022-03-04 10:17:48.797,0
13,296,-0.17,0.18,-0.28,0.0,2022-03-04 10:17:48.897,0
14,316,-0.18,0.19,-0.28,0.0,2022-03-04 10:17:48.996,0
15,336,0.18,0.15,-0.25,0.0,2022-03-04 10:17:49.095,0
16,356,-0.18,0.14,-0.23,0.0,2022-03-04 10:17:49.195,0
17,380,-0.19,0.16,-0.21,0.0,2022-03-04 10:17:49.293,0
18,400,-0.2,0.14,-0.28,0.0,2022-03-04 10:17:49.392,0
19,420,-0.23,0.22,-0.29,0.0,2022-03-04 10:17:49.492,0
20,442,0.18,0.1,-0.26,0.0,2022-03-04 10:17:49.591,0
21,462,0.13,0.1,-0.24,0.0,2022-03-04 10:17:49.690,0
22,482,-0.26,0.18,-0.22,0.0,2022-03-04 10:17:49.790,0
23,504,0.22,0.12,-0.41,0.0,2022-03-04 10:17:49.899,0
24,524,0.17,0.15,-0.33,0.0,2022-03-04 10:17:49.998,0
25,544,-0.21,0.12,-0.35,0.0,2022-03-04 10:17:50.099,0
26,568,0.17,0.11,-0.28,0.0,2022-03-04 10:17:50.198,0
27,588,-0.16,0.11,-0.26,0.0,2022-03-04 10:17:50.296,0
28,608,-0.19,0.13,-0.28,0.0,2022-03-04 10:17:50.395,0
29,628,-0.21,0.13,-0.18,0.0,2022-03-04 10:17:50.494,0
30,650,-0.24,0.09,-0.28,0.0,2022-03-04 10:17:50.594,0
31,670,0.15,0.16,-0.3,0.0,2022-03-04 10:17:50.694,0
32,690,0.16,0.11,-0.28,0.0,2022-03-04 10:17:50.791,0
33,710,-0.24,0.11,-0.32,0.0,2022-03-04 10:17:50.891,0
34,730,-0.21,0.14,-0.25,0.0,2022-03-04 10:17:50.990,0
35,750,0.17,-0.07,-0.25,0.0,2022-03-04 10:17:51.090,0
36,776,-0.25,0.12,-0.26,0.0,2022-03-04 10:17:51.199,0
37,796,-0.22,0.11,-0.3,0.0,2022-03-04 10:17:51.298,0
38,816,-0.18,0.09,-0.22,0.0,2022-03-04 10:17:51.398,0
39,836,-0.17,0.14,-0.31,0.0,2022-03-04 10:17:51.496,0
40,858,0.71,0.87,1.65,0.0,2022-03-04 10:17:51.596,0
41,878,0.71,0.51,1.2,0.0,2022-03-04 10:17:51.696,0
42,898,-0.6,-0.45,-1.74,0.0,2022-03-04 10:17:51.798,0
43,918,0.67,-0.43,-1.24,0.0,2022-03-04 10:17:51.894,0
44,938,-0.21,0.13,-0.36,0.0,2022-03-04 10:17:51.994,0
45,958,-0.23,0.1,-0.3,0.0,2022-03-04 10:17:52.093,0
46,982,-0.2,0.11,-0.24,0.0,2022-03-04 10:17:52.192,0
47,1002,0.14,0.1,-0.25,0.0,2022-03-04 10:17:52.293,0
48,1024,-0.18,0.1,-0.21,0.0,2022-03-04 10:17:52.399,0
49,1044,0.16,0.08,-0.26,0.0,2022-03-04 10:17:52.499,0
50,1066,0.14,0.1,-0.32,0.0,2022-03-04 10:17:52.599,0
51,1086,0.18,0.12,-0.25,0.0,2022-03-04 10:17:52.698,0
52,1106,-0.15,0.08,-0.25,0.0,2022-03-04 10:17:52.797,0
53,1126,-0.19,0.1,-0.23,0.0,2022-03-04 10:17:52.898,0
54,1146,-0.16,0.08,-0.3,0.0,2022-03-04 10:17:52.995,0
55,1166,-0.19,0.09,-0.3,0.0,2022-03-04 10:17:53.097,0
56,1190,-0.19,0.08,-0.28,0.0,2022-03-04 10:17:53.194,0
57,1210,-0.23,0.1,-0.32,0.0,2022-03-04 10:17:53.294,0
58,1230,-0.15,0.12,-0.24,0.0,2022-03-04 10:17:53.392,0
59,1250,-0.2,0.07,-0.29,0.0,2022-03-04 10:17:53.493,0
60,1272,-0.16,0.13,-0.27,0.0,2022-03-04 10:17:53.593,0
61,1292,-0.21,0.08,-0.24,0.0,2022-03-04 10:17:53.692,0
62,1314,-0.14,0.1,-0.23,0.0,2022-03-04 10:17:53.799,0
63,1334,-0.16,0.1,-0.2,0.0,2022-03-04 10:17:53.898,0
64,1354,0.12,-0.06,-0.23,0.0,2022-03-04 10:17:53.998,0
65,1374,-0.19,0.1,-0.3,0.0,2022-03-04 10:17:54.099,0
66,1398,0.13,0.1,-0.3,0.0,2022-03-04 10:17:54.197,0
67,1418,-0.2,-0.08,-0.27,0.0,2022-03-04 10:17:54.296,0
68,1438,0.14,0.08,-0.23,0.0,2022-03-04 10:17:54.395,0
69,1458,-0.23,0.06,-0.24,0.0,2022-03-04 10:17:54.494,0
70,1480,-0.17,0.08,-0.27,0.0,2022-03-04 10:17:54.595,0
71,1500,0.16,0.1,-0.27,0.0,2022-03-04 10:17:54.694,0
72,1520,-0.23,0.09,-0.32,0.0,2022-03-04 10:17:54.793,0
73,1540,0.16,0.08,-0.28,0.0,2022-03-04 10:17:54.891,0
74,1560,-0.23,-0.06,-0.21,0.0,2022-03-04 10:17:54.991,0
75,1580,-0.22,0.11,-0.34,0.0,2022-03-04 10:17:55.091,0
76,1606,0.13,0.09,-0.26,0.0,2022-03-04 10:17:55.199,0
77,1626,-0.22,0.07,-0.23,0.0,2022-03-04 10:17:55.298,0
78,1646,0.14,0.08,-0.18,0.0,2022-03-04 10:17:55.397,0
79,1666,-0.16,0.07,-0.26,0.0,2022-03-04 10:17:55.496,0
80,1688,0.17,0.12,-0.32,0.0,2022-03-04 10:17:55.596,0
81,1708,-0.13,0.09,-0.19,0.0,2022-03-04 10:17:55.695,0
82,1728,-0.26,0.1,-0.23,0.0,2022-03-04 10:17:55.794,0
83,1748,-0.37,0.2,-0.29,0.0,2022-03-04 10:17:55.894,0
84,1768,0.15,0.08,-0.33,0.0,2022-03-04 10:17:55.994,0
85,1788,-0.23,0.08,-0.26,0.0,2022-03-04 10:17:56.093,0
86,1812,-0.24,0.1,-0.24,0.0,2022-03-04 10:17:56.192,0
87,1832,0.3,-0.22,-0.33,0.0,2022-03-04 10:17:56.291,0
88,1854,-0.18,0.11,0.4,0.0,2022-03-04 10:17:56.399,0
89,1872,-0.21,-0.08,-0.28,0.0,2022-03-04 10:17:56.491,0
90,1896,-0.23,0.12,-0.23,0.0,2022-03-04 10:17:56.598,0
91,1916,-0.12,0.11,-0.24,0.0,2022-03-04 10:17:56.698,0
92,1936,0.14,0.12,-0.41,0.0,2022-03-04 10:17:56.797,0
93,1956,0.16,0.08,-0.23,0.0,2022-03-04 10:17:56.896,0
94,1976,-0.18,0.12,-0.21,0.0,2022-03-04 10:17:56.995,0
95,1996,-0.19,0.08,-0.32,0.0,2022-03-04 10:17:57.096,0
96,2016,0.16,0.09,-0.31,0.0,2022-03-04 10:17:57.194,0
97,2040,-0.36,0.09,-0.23,0.0,2022-03-04 10:17:57.294,0
98,2060,-0.2,-0.06,-0.39,0.0,2022-03-04 10:17:57.393,0
99,2080,-0.13,-0.11,-0.3,0.0,2022-03-04 10:17:57.492,0
100,2102,0.15,-0.1,-0.28,0.0,2022-03-04 10:17:57.592,0
101,2122,-0.24,-0.06,-0.43,0.0,2022-03-04 10:17:57.692,0
102,2144,0.44,0.17,-0.37,0.0,2022-03-04 10:17:57.799,1
103,2162,-0.3,0.14,-0.25,0.0,2022-03-04 10:17:57.891,1
104,2184,0.3,0.13,-0.47,0.0,2022-03-04 10:17:57.998,1
105,2204,0.35,0.2,-0.33,0.0,2022-03-04 10:17:58.097,1
106,2228,-0.32,0.33,0.25,0.0,2022-03-04 10:17:58.196,1
107,2248,-0.34,0.31,-0.32,0.0,2022-03-04 10:17:58.296,1
108,2268,-0.27,0.53,-0.24,0.0,2022-03-04 10:17:58.395,1
109,2288,-0.24,0.68,-0.24,0.0,2022-03-04 10:17:58.494,1
110,2310,-0.32,0.75,-0.47,0.0,2022-03-04 10:17:58.596,1
111,2330,-0.44,0.79,0.24,0.0,2022-03-04 10:17:58.693,1
112,2350,-0.25,0.74,-0.33,0.0,2022-03-04 10:17:58.795,1
113,2370,-0.51,0.85,-0.24,0.0,2022-03-04 10:17:58.891,1
114,2390,-0.36,0.98,-0.35,0.0,2022-03-04 10:17:58.992,1
115,2410,-0.44,1.06,-0.48,0.0,2022-03-04 10:17:59.090,1
116,2436,-0.4,1.12,-0.46,0.0,2022-03-04 10:17:59.199,1
117,2456,-0.39,1.1,-0.45,0.0,2022-03-04 10:17:59.298,1
118,2476,-0.44,1.11,-0.36,0.0,2022-03-04 10:17:59.398,1
119,2496,-0.41,1.24,-0.32,0.0,2022-03-04 10:17:59.497,1
120,2518,-0.46,1.55,-0.52,0.0,2022-03-04 10:17:59.596,1
121,2538,-0.49,1.52,0.49,0.0,2022-03-04 10:17:59.695,1
122,2558,-0.76,1.57,-0.52,0.0,2022-03-04 10:17:59.796,1
123,2578,0.42,1.7,-0.55,0.0,2022-03-04 10:17:59.894,1
124,2598,-0.6,1.62,-0.45,0.0,2022-03-04 10:17:59.993,1
125,2618,-0.58,1.64,-0.44,0.0,2022-03-04 10:18:00.092,1
126,2640,-0.49,1.76,0.41,0.0,2022-03-04 10:18:00.196,1
127,2662,-0.5,1.66,-0.81,0.0,2022-03-04 10:18:00.291,1
128,2682,-0.59,1.76,-0.42,0.0,2022-03-04 10:18:00.391,1
129,2704,-0.71,1.63,-0.69,0.0,2022-03-04 10:18:00.499,1
130,2726,-0.98,1.8,-0.41,0.0,2022-03-04 10:18:00.599,1
131,2746,-0.65,2.22,-0.5,0.0,2022-03-04 10:18:00.698,1
132,2766,-0.9,1.94,-0.7,0.0,2022-03-04 10:18:00.797,1
133,2786,-0.76,2.09,-0.74,0.0,2022-03-04 10:18:00.896,1
134,2806,0.68,1.85,-1.0,0.0,2022-03-04 10:18:00.997,1
135,2826,-0.72,1.79,-0.56,0.0,2022-03-04 10:18:01.096,1
136,2850,-0.8,1.78,-1.28,10.8,2022-03-04 10:18:01.194,1
137,2870,0.46,-0.34,-0.59,10.8,2022-03-04 10:18:01.295,1
138,2890,-0.45,0.89,-0.62,10.8,2022-03-04 10:18:01.393,1
139,2910,-0.53,1.56,0.48,10.8,2022-03-04 10:18:01.492,1
140,2932,-0.47,1.5,0.82,10.8,2022-03-04 10:18:01.591,1
141,2952,1.01,0.89,-0.92,10.8,2022-03-04 10:18:01.690,1
142,2972,-0.36,0.73,-1.01,10.8,2022-03-04 10:18:01.790,1
143,2994,-0.44,1.61,-0.81,10.8,2022-03-04 10:18:01.899,1
144,3014,-0.53,1.61,-0.8,10.8,2022-03-04 10:18:01.998,1
145,3034,-0.62,1.23,-0.99,10.8,2022-03-04 10:18:02.099,1
146,3058,-0.74,0.81,-0.87,14.8,2022-03-04 10:18:02.197,1
147,3078,-0.32,1.2,0.85,14.8,2022-03-04 10:18:02.297,1
148,3098,-0.94,1.4,-0.89,14.8,2022-03-04 10:18:02.396,1
149,3118,0.46,1.11,0.46,14.8,2022-03-04 10:18:02.495,1
150,3140,-0.66,0.86,-0.82,14.8,2022-03-04 10:18:02.594,1
151,3160,-0.64,0.83,-0.72,14.8,2022-03-04 10:18:02.693,1
152,3180,-0.52,0.76,-0.45,14.8,2022-03-04 10:18:02.792,1
153,3200,-0.81,0.58,-0.53,14.8,2022-03-04 10:18:02.892,1
154,3220,0.25,0.6,-0.47,14.8,2022-03-04 10:18:02.992,1
155,3240,-0.85,0.77,0.58,14.8,2022-03-04 10:18:03.093,1
156,3262,-0.6,0.82,0.63,18.7,2022-03-04 10:18:03.198,1
157,3286,-0.86,0.8,-0.5,18.7,2022-03-04 10:18:03.298,1
158,3306,-0.8,0.75,0.88,18.7,2022-03-04 10:18:03.399,1
159,3326,-1.03,0.94,-0.56,18.7,2022-03-04 10:18:03.497,1
160,3348,-0.64,0.67,-0.78,18.7,2022-03-04 10:18:03.596,1
161,3368,-0.91,0.52,-1.18,18.7,2022-03-04 10:18:03.696,1
162,3388,-1.12,0.64,-1.09,18.7,2022-03-04 10:18:03.795,1
163,3408,-1.14,0.53,-0.47,18.7,2022-03-04 10:18:03.895,1
164,3428,0.88,0.58,-0.86,18.7,2022-03-04 10:18:03.993,1
165,3448,-0.75,0.6,0.87,18.7,2022-03-04 10:18:04.093,1
166,3468,-0.6,-0.61,-1.31,18.7,2022-03-04 10:18:04.193,1
167,3492,0.83,-1.23,-1.31,22.3,2022-03-04 10:18:04.291,1
168,3512,0.9,-0.76,-0.67,22.3,2022-03-04 10:18:04.390,1
169,3532,0.93,-0.8,0.83,22.3,2022-03-04 10:18:04.490,1
170,3554,0.94,-0.8,-0.67,22.3,2022-03-04 10:18:04.589,1
171,3576,0.48,-0.9,-0.92,22.3,2022-03-04 10:18:04.698,1
172,3596,-0.6,-0.95,1.07,22.3,2022-03-04 10:18:04.798,1
173,3616,0.52,-0.8,-0.52,22.3,2022-03-04 10:18:04.896,1
174,3636,0.51,-0.78,0.72,22.3,2022-03-04 10:18:04.996,1
175,3656,-0.62,-0.62,0.84,22.3,2022-03-04 10:18:05.098,1
176,3680,-0.73,0.39,-1.34,23.0,2022-03-04 10:18:05.195,1
177,3700,0.74,0.85,-0.49,23.0,2022-03-04 10:18:05.294,1
178,3720,-0.88,1.0,-0.5,23.0,2022-03-04 10:18:05.394,1
179,3740,-0.59,-0.69,-0.62,23.0,2022-03-04 10:18:05.492,1
180,3762,-0.97,1.26,0.69,23.0,2022-03-04 10:18:05.591,1
181,3782,1.11,0.7,-1.29,23.0,2022-03-04 10:18:05.691,1
182,3802,-0.54,0.66,-1.29,23.0,2022-03-04 10:18:05.790,1
183,3822,-1.17,1.08,1.45,23.0,2022-03-04 10:18:05.890,1
184,3842,-0.68,0.93,-1.32,23.0,2022-03-04 10:18:05.990,1
185,3864,0.85,1.08,-1.15,23.0,2022-03-04 10:18:06.098,1
186,3888,-0.85,0.9,0.9,27.0,2022-03-04 10:18:06.198,1
187,3908,-0.68,1.02,-0.98,27.0,2022-03-04 10:18:06.296,1
188,3928,-0.86,0.85,-1.37,27.0,2022-03-04 10:18:06.395,1
189,3948,-0.9,1.12,1.6,27.0,2022-03-04 10:18:06.495,1
190,3970,-0.83,0.67,1.05,27.0,2022-03-04 10:18:06.596,1
191,3990,-0.67,0.65,0.68,27.0,2022-03-04 10:18:06.694,1
192,4010,0.55,0.7,-0.68,27.0,2022-03-04 10:18:06.793,1
193,4030,-0.57,0.57,-0.92,27.0,2022-03-04 10:18:06.892,1
194,4050,-0.41,0.74,1.13,27.0,2022-03-04 10:18:06.991,1
195,4070,-0.62,0.52,1.03,27.0,2022-03-04 10:18:07.094,1
196,4094,1.09,0.72,0.84,31.0,2022-03-04 10:18:07.190,1
197,4114,0.65,0.7,-1.37,31.0,2022-03-04 10:18:07.289,1
198,4136,-0.8,0.75,-1.12,31.0,2022-03-04 10:18:07.399,1
199,4154,-0.97,0.5,1.09,31.0,2022-03-04 10:18:07.488,1
200,4178,-0.81,0.63,-1.37,31.0,2022-03-04 10:18:07.597,1
201,4198,-1.25,0.89,-1.09,31.0,2022-03-04 10:18:07.696,1
202,4218,-0.96,0.89,0.9,31.0,2022-03-04 10:18:07.795,1
203,4238,-0.75,0.79,-1.33,31.0,2022-03-04 10:18:07.896,1
204,4258,-1.02,0.78,-1.97,31.0,2022-03-04 10:18:07.994,1
205,4278,-1.09,0.54,0.96,31.0,2022-03-04 10:18:08.094,1
206,4300,-0.78,0.81,0.92,34.6,2022-03-04 10:18:08.194,1
207,4322,-2.57,0.86,3.08,34.6,2022-03-04 10:18:08.291,1
208,4342,1.53,0.58,-1.47,34.6,2022-03-04 10:18:08.391,1
209,4362,1.31,0.58,-1.47,34.6,2022-03-04 10:18:08.491,1
210,4384,-1.38,1.42,-2.17,34.6,2022-03-04 10:18:08.589,1
211,4406,-0.7,0.62,-1.68,34.6,2022-03-04 10:18:08.699,1
212,4426,-0.67,0.44,1.24,34.6,2022-03-04 10:18:08.799,1
213,4446,-0.68,0.91,-0.69,34.6,2022-03-04 10:18:08.898,1
214,4466,-0.68,0.81,1.41,34.6,2022-03-04 10:18:08.998,1
215,4486,-0.71,0.57,0.89,34.6,2022-03-04 10:18:09.097,1
216,4510,-1.19,0.45,-0.69,37.8,2022-03-04 10:18:09.195,1
217,4530,0.59,0.26,-0.7,37.8,2022-03-04 10:18:09.294,1
218,4550,-0.58,0.33,-0.81,37.8,2022-03-04 10:18:09.393,1
219,4570,-0.84,0.55,-1.09,37.8,2022-03-04 10:18:09.493,1
220,4592,-1.14,0.48,0.95,37.8,2022-03-04 10:18:09.592,1
221,4612,1.07,0.34,-1.0,37.8,2022-03-04 10:18:09.691,1
222,4632,1.33,0.57,-1.44,37.8,2022-03-04 10:18:09.790,1
223,4652,1.81,0.4,-0.64,37.8,2022-03-04 10:18:09.890,1
224,4674,-1.21,0.47,-1.0,37.8,2022-03-04 10:18:09.999,1
225,4692,-1.34,-0.73,-0.83,37.8,2022-03-04 10:18:10.088,1
226,4718,1.37,-1.01,-1.05,41.4,2022-03-04 10:18:10.198,1
227,4738,0.28,-1.17,-1.32,41.4,2022-03-04 10:18:10.297,1
228,4758,0.68,-1.44,0.88,41.4,2022-03-04 10:18:10.398,1
229,4778,0.92,-1.21,1.39,41.4,2022-03-04 10:18:10.497,1
230,4800,-0.44,-1.1,-1.41,41.4,2022-03-04 10:18:10.597,1
231,4820,0.87,-1.37,1.01,41.4,2022-03-04 10:18:10.694,1
232,4840,0.93,-1.34,-0.85,41.4,2022-03-04 10:18:10.793,1
233,4860,0.97,-1.21,1.14,41.4,2022-03-04 10:18:10.892,1
234,4880,0.74,-1.11,-1.25,41.4,2022-03-04 10:18:10.992,1
235,4900,-0.68,-0.75,-1.19,41.4,2022-03-04 10:18:11.091,1
236,4924,1.35,0.68,0.85,41.8,2022-03-04 10:18:11.191,1
237,4946,-1.79,0.96,-1.95,41.8,2022-03-04 10:18:11.299,1
238,4966,-1.31,1.0,-1.49,41.8,2022-03-04 10:18:11.399,1
239,4986,-0.51,1.06,1.24,41.8,2022-03-04 10:18:11.498,1
240,5008,0.79,-0.68,-1.08,41.8,2022-03-04 10:18:11.599,1
241,5028,-1.29,-0.71,0.84,41.8,2022-03-04 10:18:11.697,1
242,5048,-0.66,-0.83,1.97,41.8,2022-03-04 10:18:11.797,1
243,5068,-1.22,-0.59,-2.31,41.8,2022-03-04 10:18:11.898,1
244,5088,-1.44,0.58,1.62,41.8,2022-03-04 10:18:11.994,1
245,5108,-0.54,0.48,-1.72,41.8,2022-03-04 10:18:12.094,1
246,5132,2.29,-0.72,-1.22,45.0,2022-03-04 10:18:12.196,1
247,5152,-0.79,-0.77,-1.43,45.0,2022-03-04 10:18:12.292,1
248,5172,1.3,0.54,-1.26,45.0,2022-03-04 10:18:12.391,1
249,5192,-1.12,-0.85,3.18,45.0,2022-03-04 10:18:12.491,1
250,5214,1.83,-1.0,-2.49,45.0,2022-03-04 10:18:12.590,1
251,5234,1.23,-0.66,1.4,45.0,2022-03-04 10:18:12.689,10
252,5256,1.26,-0.57,-1.9,45.0,2022-03-04 10:18:12.798,10
253,5274,-0.63,-0.7,1.3,45.0,2022-03-04 10:18:12.887,10
254,5296,1.05,-0.66,-1.78,45.0,2022-03-04 10:18:12.998,10
255,5314,-0.74,-0.67,-1.73,45.0,2022-03-04 10:18:13.086,10
256,5340,-0.83,-0.62,1.68,47.2,2022-03-04 10:18:13.197,10
257,5360,-0.77,-0.55,1.76,47.2,2022-03-04 10:18:13.295,10
258,5380,-1.93,-1.0,-1.07,47.2,2022-03-04 10:18:13.395,10
259,5400,1.04,-1.09,-1.6,47.2,2022-03-04 10:18:13.495,10
260,5422,0.66,-1.1,-2.25,47.2,2022-03-04 10:18:13.592,10
261,5442,1.16,-1.02,-1.47,47.2,2022-03-04 10:18:13.691,10
262,5462,0.59,-1.09,-1.4,47.2,2022-03-04 10:18:13.791,10
263,5482,0.87,-1.1,-1.22,47.2,2022-03-04 10:18:13.890,10
264,5504,1.6,-1.06,0.94,47.2,2022-03-04 10:18:13.999,10
265,5524,-1.03,-1.13,-1.11,47.2,2022-03-04 10:18:14.099,10
266,5548,-1.02,-1.54,-1.34,47.9,2022-03-04 10:18:14.197,10
267,5568,1.76,-1.33,2.0,47.9,2022-03-04 10:18:14.297,10
268,5588,1.39,-1.37,-2.34,47.9,2022-03-04 10:18:14.397,10
269,5608,1.32,-1.26,-1.76,47.9,2022-03-04 10:18:14.498,10
270,5630,1.04,-1.49,-0.86,47.9,2022-03-04 10:18:14.595,10
271,5650,1.22,-1.08,-1.46,47.9,2022-03-04 10:18:14.694,10
272,5670,1.31,-1.32,-1.37,47.9,2022-03-04 10:18:14.794,10
273,5690,-1.13,-1.64,2.67,47.9,2022-03-04 10:18:14.896,10
274,5710,1.54,-1.14,-0.8,47.9,2022-03-04 10:18:14.994,10
275,5730,-0.99,-0.84,-1.09,47.9,2022-03-04 10:18:15.091,10
276,5752,-1.07,-0.97,-0.9,47.9,2022-03-04 10:18:15.194,10
277,5776,1.13,-1.0,-1.57,47.9,2022-03-04 10:18:15.299,10
278,5794,1.1,-0.85,1.09,47.9,2022-03-04 10:18:15.389,10
279,5816,1.01,-0.81,0.94,47.9,2022-03-04 10:18:15.498,10
280,5838,-1.17,-1.04,1.5,47.9,2022-03-04 10:18:15.597,10
281,5858,1.58,-0.92,-1.4,47.9,2022-03-04 10:18:15.699,10
282,5878,0.75,-1.31,1.71,47.9,2022-03-04 10:18:15.796,10
283,5898,0.78,-1.22,-1.34,47.9,2022-03-04 10:18:15.899,10
284,5918,1.59,-1.35,-1.89,47.9,2022-03-04 10:18:15.996,10
285,5938,1.69,-0.97,-1.69,47.9,2022-03-04 10:18:16.094,10
286,5962,1.21,-1.49,-1.89,47.9,2022-03-04 10:18:16.194,10
287,5982,1.44,-1.33,-2.95,47.9,2022-03-04 10:18:16.294,10
288,6002,1.07,-0.94,-1.86,47.9,2022-03-04 10:18:16.394,10
289,6022,0.94,-1.09,1.28,47.9,2022-03-04 10:18:16.491,4
290,6044,0.78,-1.42,0.87,47.9,2022-03-04 10:18:16.591,4
291,6066,-1.08,-2.08,-1.58,47.9,2022-03-04 10:18:16.699,4
292,6086,0.9,-1.52,-1.8,47.9,2022-03-04 10:18:16.798,4
293,6106,0.78,-1.63,-0.99,47.9,2022-03-04 10:18:16.898,4
294,6126,1.14,-1.61,-0.8,47.9,2022-03-04 10:18:16.998,4
295,6146,1.45,-1.56,1.8,47.9,2022-03-04 10:18:17.097,4
296,6170,1.69,-1.61,-1.29,47.9,2022-03-04 10:18:17.196,4
297,6190,1.11,-1.34,-1.71,47.2,2022-03-04 10:18:17.297,4
298,6210,1.71,-1.75,-1.68,47.2,2022-03-04 10:18:17.394,4
299,6230,1.01,-1.64,-0.95,47.2,2022-03-04 10:18:17.494,4
300,6252,1.43,-1.65,-1.39,47.2,2022-03-04 10:18:17.594,4
301,6270,0.69,-1.87,-1.2,47.2,2022-03-04 10:18:17.683,4
302,6292,1.02,-1.97,1.64,47.2,2022-03-04 10:18:17.797,4
303,6312,1.12,-1.84,0.9,47.2,2022-03-04 10:18:17.896,4
304,6332,0.8,-1.81,1.63,47.2,2022-03-04 10:18:17.999,4
305,6354,1.38,-1.84,-1.06,47.2,2022-03-04 10:18:18.099,4
306,6374,0.88,-1.87,-1.07,47.2,2022-03-04 10:18:18.198,4
307,6398,0.88,-1.6,0.83,45.0,2022-03-04 10:18:18.298,4
308,6418,0.59,-1.73,-0.88,45.0,2022-03-04 10:18:18.397,4
309,6438,0.76,-1.81,-0.97,45.0,2022-03-04 10:18:18.497,4
310,6460,1.23,-1.99,0.79,45.0,2022-03-04 10:18:18.595,4
311,6480,0.47,-1.87,-0.95,45.0,2022-03-04 10:18:18.696,4
312,6500,0.72,-1.83,-0.92,45.0,2022-03-04 10:18:18.795,4
313,6520,0.49,-1.76,0.82,45.0,2022-03-04 10:18:18.893,4
314,6540,0.97,-1.63,-0.65,45.0,2022-03-04 10:18:18.994,4
315,6560,0.89,-1.68,-1.02,45.0,2022-03-04 10:18:19.095,4
316,6584,0.59,-1.6,0.51,45.0,2022-03-04 10:18:19.191,4
317,6606,-0.97,-1.78,-1.22,41.8,2022-03-04 10:18:19.299,4
318,6626,0.75,-1.82,-0.82,41.8,2022-03-04 10:18:19.399,4
319,6646,0.7,-1.6,-0.82,41.8,2022-03-04 10:18:19.498,4
320,6668,0.48,-1.72,-0.31,41.8,2022-03-04 10:18:19.599,4
321,6688,1.31,-1.55,-1.11,41.8,2022-03-04 10:18:19.697,4
322,6708,-0.85,-1.73,1.01,41.8,2022-03-04 10:18:19.796,4
323,6728,1.43,-1.74,0.81,41.8,2022-03-04 10:18:19.895,4
324,6748,0.96,-1.88,-1.53,41.8,2022-03-04 10:18:19.995,4
325,6768,0.6,-1.55,-1.11,41.8,2022-03-04 10:18:20.094,4
326,6792,1.15,-1.77,-0.9,41.8,2022-03-04 10:18:20.193,4
327,6812,-1.14,-1.47,0.64,38.2,2022-03-04 10:18:20.293,4
328,6832,0.61,-1.63,-1.18,38.2,2022-03-04 10:18:20.392,4
329,6852,-0.72,-1.59,-0.86,38.2,2022-03-04 10:18:20.493,4
330,6874,0.85,-1.7,0.85,38.2,2022-03-04 10:18:20.592,4
331,6894,0.71,-1.5,-0.55,38.2,2022-03-04 10:18:20.692,4
332,6916,0.62,-1.4,-0.99,38.2,2022-03-04 10:18:20.799,4
333,6936,0.64,-1.42,-1.08,38.2,2022-03-04 10:18:20.898,4
334,6956,0.71,-1.42,0.6,38.2,2022-03-04 10:18:20.998,4
335,6976,0.71,-1.49,1.16,38.2,2022-03-04 10:18:21.097,4
336,7000,0.74,-1.41,-0.79,38.2,2022-03-04 10:18:21.196,4
337,7020,0.44,-1.29,-0.87,34.6,2022-03-04 10:18:21.295,4
338,7040,-0.36,-1.03,-0.56,34.6,2022-03-04 10:18:21.394,4
339,7060,-0.61,-0.91,-0.97,34.6,2022-03-04 10:18:21.494,4
340,7082,-0.68,-0.61,-0.69,34.6,2022-03-04 10:18:21.594,4
341,7102,0.57,-0.69,-0.77,34.6,2022-03-04 10:18:21.693,4
342,7122,0.56,-0.74,-0.71,34.6,2022-03-04 10:18:21.792,4
343,7142,-0.82,-0.57,-0.97,34.6,2022-03-04 10:18:21.892,4
344,7164,0.72,-0.46,0.58,34.6,2022-03-04 10:18:21.999,4
345,7184,-0.68,-0.3,-0.51,34.6,2022-03-04 10:18:22.099,4
346,7208,0.52,-0.3,-0.77,34.6,2022-03-04 10:18:22.198,4
347,7228,0.39,-0.35,-0.49,31.7,2022-03-04 10:18:22.298,4
348,7248,0.65,0.29,-0.47,31.7,2022-03-04 10:18:22.396,4
349,7268,-0.41,-0.41,-0.72,31.7,2022-03-04 10:18:22.496,7
350,7290,-0.28,0.33,-0.79,31.7,2022-03-04 10:18:22.595,7
351,7310,0.39,0.44,-1.1,31.7,2022-03-04 10:18:22.695,7
352,7330,0.62,0.33,-0.58,31.7,2022-03-04 10:18:22.794,7
353,7350,-0.61,0.38,-0.4,31.7,2022-03-04 10:18:22.893,7
354,7370,0.8,0.38,0.47,31.7,2022-03-04 10:18:22.993,7
355,7390,0.41,0.47,-0.91,31.7,2022-03-04 10:18:23.095,7
356,7412,0.35,0.44,-0.88,31.7,2022-03-04 10:18:23.195,7
357,7434,-0.51,0.37,-0.83,30.6,2022-03-04 10:18:23.291,7
358,7456,0.38,0.34,-0.72,30.6,2022-03-04 10:18:23.399,7
359,7476,0.5,0.28,-0.64,30.6,2022-03-04 10:18:23.499,7
360,7498,-0.57,0.41,-0.84,30.6,2022-03-04 10:18:23.598,7
361,7518,-0.39,0.35,-0.72,30.6,2022-03-04 10:18:23.697,7
362,7538,-0.28,0.35,-0.5,30.6,2022-03-04 10:18:23.796,7
363,7558,-0.75,0.31,-0.75,30.6,2022-03-04 10:18:23.896,7
364,7578,-0.48,0.4,-0.53,30.6,2022-03-04 10:18:23.995,7
365,7596,0.55,0.54,-0.36,30.6,2022-03-04 10:18:24.086,7
366,7622,0.31,0.53,0.66,30.6,2022-03-04 10:18:24.193,7
367,7642,-0.79,0.35,-0.77,28.8,2022-03-04 10:18:24.296,7
368,7662,0.61,0.31,-0.59,28.8,2022-03-04 10:18:24.392,7
369,7682,0.79,0.38,-0.59,28.8,2022-03-04 10:18:24.491,7
370,7704,0.31,0.29,-0.84,28.8,2022-03-04 10:18:24.592,7
371,7724,0.57,0.52,-0.77,28.8,2022-03-04 10:18:24.691,7
372,7746,0.58,0.47,-0.44,28.8,2022-03-04 10:18:24.799,7
373,7766,0.73,0.48,-0.45,28.8,2022-03-04 10:18:24.898,7
374,7786,0.63,0.39,0.59,28.8,2022-03-04 10:18:24.997,7
375,7806,0.87,0.5,-0.48,28.8,2022-03-04 10:18:25.097,7
376,7830,0.56,0.55,0.62,28.8,2022-03-04 10:18:25.196,7
377,7850,0.8,0.69,0.55,27.0,2022-03-04 10:18:25.295,7
378,7870,0.59,0.61,0.64,27.0,2022-03-04 10:18:25.395,7
379,7890,0.63,0.7,-0.54,27.0,2022-03-04 10:18:25.494,7
380,7912,0.64,0.56,-0.58,27.0,2022-03-04 10:18:25.593,7
381,7932,1.37,0.52,-0.87,27.0,2022-03-04 10:18:25.693,7
382,7952,1.64,0.38,-0.46,27.0,2022-03-04 10:18:25.792,7
383,7972,1.32,0.51,-0.4,27.0,2022-03-04 10:18:25.891,7
384,7992,1.87,0.46,-0.51,27.0,2022-03-04 10:18:25.990,7
385,8012,2.09,0.23,-0.47,27.0,2022-03-04 10:18:26.090,7
386,8038,1.74,0.32,0.43,27.0,2022-03-04 10:18:26.199,7
387,8058,1.47,-0.17,-0.66,25.9,2022-03-04 10:18:26.298,7
388,8078,1.34,0.39,-0.58,25.9,2022-03-04 10:18:26.397,7
389,8098,1.5,0.37,-0.5,25.9,2022-03-04 10:18:26.496,7
390,8120,1.09,0.23,-0.59,25.9,2022-03-04 10:18:26.597,7
391,8140,0.64,0.25,-0.62,25.9,2022-03-04 10:18:26.695,7
392,8160,0.47,0.27,0.76,25.9,2022-03-04 10:18:26.795,7
393,8180,-0.47,-0.22,-0.75,25.9,2022-03-04 10:18:26.894,7
394,8200,-0.6,-0.13,-0.77,25.9,2022-03-04 10:18:26.993,7
395,8220,-1.2,-0.49,-0.84,25.9,2022-03-04 10:18:27.093,7
396,8244,-1.23,-0.78,0.49,25.9,2022-03-04 10:18:27.192,7
397,8264,-1.67,-0.77,-0.59,25.6,2022-03-04 10:18:27.291,7
398,8286,-2.18,-0.85,-0.74,25.6,2022-03-04 10:18:27.399,7
399,8306,-2.32,-0.96,-0.69,25.6,2022-03-04 10:18:27.499,7
400,8328,-2.05,-0.91,-0.71,25.6,2022-03-04 10:18:27.598,7
401,8348,-3.12,-0.96,0.69,25.6,2022-03-04 10:18:27.697,7
402,8368,-2.69,-1.08,0.53,25.6,2022-03-04 10:18:27.798,7
403,8388,-2.72,-1.32,-0.35,25.6,2022-03-04 10:18:27.896,7
404,8408,-2.61,-1.19,-0.48,25.6,2022-03-04 10:18:27.995,7
405,8428,-3.78,-1.33,0.91,25.6,2022-03-04 10:18:28.094,7
406,8452,-3.57,-1.55,0.88,25.6,2022-03-04 10:18:28.194,7
407,8472,-3.23,-1.55,0.73,24.1,2022-03-04 10:18:28.293,7
408,8492,-3.08,-1.58,0.78,24.1,2022-03-04 10:18:28.392,7
409,8512,-3.13,-1.53,-0.74,24.1,2022-03-04 10:18:28.491,7
410,8534,-3.07,-1.7,-0.46,24.1,2022-03-04 10:18:28.591,7
411,8554,-3.25,-1.48,0.57,24.1,2022-03-04 10:18:28.690,7
412,8576,-3.45,-1.39,1.0,24.1,2022-03-04 10:18:28.799,7
413,8596,-3.54,-1.49,-0.37,24.1,2022-03-04 10:18:28.899,7
414,8616,-3.11,-1.57,0.43,24.1,2022-03-04 10:18:28.998,7
415,8636,-3.06,-1.2,0.52,24.1,2022-03-04 10:18:29.099,7
416,8656,-3.1,-1.11,0.71,24.1,2022-03-04 10:18:29.196,7
417,8680,-3.1,-1.12,1.05,22.0,2022-03-04 10:18:29.295,7
418,8700,-2.69,-1.07,-0.66,22.0,2022-03-04 10:18:29.395,7
419,8720,-2.96,-1.0,-0.51,22.0,2022-03-04 10:18:29.494,7
420,8742,-3.13,-0.97,0.78,22.0,2022-03-04 10:18:29.594,7
421,8762,-3.33,-1.17,0.35,22.0,2022-03-04 10:18:29.694,7
422,8782,-3.47,-1.19,0.33,22.0,2022-03-04 10:18:29.792,7
423,8802,-3.57,-1.35,-0.67,22.0,2022-03-04 10:18:29.891,7
424,8822,-3.78,-1.19,0.86,22.0,2022-03-04 10:18:29.991,7
425,8842,-3.04,-1.16,-0.51,22.0,2022-03-04 10:18:30.090,7
426,8866,-3.1,-1.09,0.45,22.0,2022-03-04 10:18:30.189,7
427,8888,-2.83,-1.37,-0.64,19.4,2022-03-04 10:18:30.299,7
428,8906,-3.24,-1.59,-0.73,19.4,2022-03-04 10:18:30.388,7
429,8928,-3.02,-1.33,-0.86,19.4,2022-03-04 10:18:30.497,7
430,8950,-2.94,-1.17,0.81,19.4,2022-03-04 10:18:30.596,7
431,8970,-2.67,-1.41,-0.42,19.4,2022-03-04 10:18:30.695,7
432,8990,-2.84,-1.34,0.51,19.4,2022-03-04 10:18:30.795,7
433,9010,-2.81,-1.16,-0.46,19.4,2022-03-04 10:18:30.894,7
434,9030,-3.1,-1.39,0.52,19.4,2022-03-04 10:18:30.993,7
435,9050,-2.92,-1.44,1.15,19.4,2022-03-04 10:18:31.092,7
436,9074,-2.93,-1.66,-0.82,19.4,2022-03-04 10:18:31.192,7
437,9094,-3.4,-1.45,-0.94,17.3,2022-03-04 10:18:31.291,7
438,9114,-2.97,-1.39,0.49,17.3,2022-03-04 10:18:31.390,7
439,9134,-2.86,-1.44,-0.6,17.3,2022-03-04 10:18:31.489,7
440,9156,-3.11,-1.29,-0.44,17.3,2022-03-04 10:18:31.589,7
441,9176,-2.76,-1.41,-0.61,17.3,2022-03-04 10:18:31.691,7
442,9198,-3.24,-1.42,1.03,17.3,2022-03-04 10:18:31.799,7
443,9218,-3.24,-1.61,-0.78,17.3,2022-03-04 10:18:31.897,7
444,9238,-3.42,-1.88,0.61,17.3,2022-03-04 10:18:31.996,7
445,9258,-3.31,-2.0,0.2,17.3,2022-03-04 10:18:32.095,7
446,9278,-3.11,-1.78,-0.79,17.3,2022-03-04 10:18:32.195,7
447,9302,-3.17,-1.85,-0.69,17.3,2022-03-04 10:18:32.293,7
448,9322,-3.57,-1.86,0.48,17.3,2022-03-04 10:18:32.392,7
449,9342,-3.72,-1.98,-0.78,17.3,2022-03-04 10:18:32.491,7
450,9364,-3.49,-1.94,-0.7,17.3,2022-03-04 10:18:32.591,7
451,9384,-4.27,-2.15,0.76,17.3,2022-03-04 10:18:32.690,7
452,9404,-4.29,-1.94,-0.6,17.3,2022-03-04 10:18:32.791,7
453,9424,-3.36,-1.78,0.49,17.3,2022-03-04 10:18:32.889,7
454,9446,-3.37,-1.82,0.65,17.3,2022-03-04 10:18:32.999,7
455,9464,-3.73,-1.8,-0.81,17.3,2022-03-04 10:18:33.087,7
456,9486,-3.66,-1.66,1.22,18.7,2022-03-04 10:18:33.190,7
457,9510,-3.35,-1.45,0.54,18.7,2022-03-04 10:18:33.297,7
458,9530,-3.02,-1.7,1.22,18.7,2022-03-04 10:18:33.395,7
459,9550,-2.88,-1.37,1.14,18.7,2022-03-04 10:18:33.494,7
460,9572,-3.26,-1.52,0.78,18.7,2022-03-04 10:18:33.594,7
461,9592,-2.6,-1.3,1.05,18.7,2022-03-04 10:18:33.693,7
462,9612,-2.7,-1.21,1.18,18.7,2022-03-04 10:18:33.792,7
463,9632,-2.65,-1.26,-1.42,18.7,2022-03-04 10:18:33.892,7
464,9652,-2.54,-1.2,2.09,18.7,2022-03-04 10:18:33.991,7
465,9672,-2.0,-1.26,1.28,18.7,2022-03-04 10:18:34.090,7
466,9692,-1.25,-1.09,0.96,18.7,2022-03-04 10:18:34.189,7
467,9716,-0.59,-1.1,-0.62,18.7,2022-03-04 10:18:34.289,7
468,9738,-0.66,-0.93,-1.08,17.3,2022-03-04 10:18:34.399,7
469,9758,-0.74,-0.75,-0.71,17.3,2022-03-04 10:18:34.499,7
470,9780,0.34,-0.65,-0.35,17.3,2022-03-04 10:18:34.599,7
471,9800,0.42,-0.76,-0.44,17.3,2022-03-04 10:18:34.698,7
472,9820,0.64,-0.86,1.08,17.3,2022-03-04 10:18:34.795,7
473,9840,-0.9,-0.83,0.67,17.3,2022-03-04 10:18:34.895,7
474,9860,0.68,-0.78,-0.63,17.3,2022-03-04 10:18:34.994,7
475,9880,-0.63,-0.64,-0.7,17.3,2022-03-04 10:18:35.093,7
476,9904,0.93,-0.72,0.73,17.3,2022-03-04 10:18:35.193,7
477,9924,0.76,-0.61,0.57,17.3,2022-03-04 10:18:35.292,7
478,9944,0.77,-0.59,0.37,17.3,2022-03-04 10:18:35.391,7
479,9964,0.81,-0.46,-0.56,17.3,2022-03-04 10:18:35.490,7
480,9986,1.16,-0.55,-1.01,17.3,2022-03-04 10:18:35.590,7
481,10008,1.23,-0.35,0.51,17.3,2022-03-04 10:18:35.699,7
482,10028,0.86,-0.3,0.64,17.3,2022-03-04 10:18:35.798,7
483,10048,1.14,-0.41,-0.93,17.3,2022-03-04 10:18:35.897,7
484,10068,0.89,-0.32,-1.14,17.3,2022-03-04 10:18:35.998,7
485,10088,1.24,-0.4,-0.98,17.3,2022-03-04 10:18:36.097,7
486,10108,1.28,-0.35,0.62,17.3,2022-03-04 10:18:36.196,7
487,10132,1.02,-0.27,0.53,21.2,2022-03-04 10:18:36.294,1
488,10152,1.2,-0.37,-0.55,21.2,2022-03-04 10:18:36.393,1
489,10172,1.38,0.29,-1.22,21.2,2022-03-04 10:18:36.493,1
490,10194,1.19,0.32,0.78,21.2,2022-03-04 10:18:36.592,1
491,10214,1.01,-0.46,-0.75,21.2,2022-03-04 10:18:36.691,1
492,10234,1.02,0.35,-0.59,21.2,2022-03-04 10:18:36.791,1
493,10256,0.79,-0.51,-0.9,21.2,2022-03-04 10:18:36.899,1
494,10274,1.45,-0.61,0.71,21.2,2022-03-04 10:18:36.989,1
495,10296,1.32,0.3,0.5,21.2,2022-03-04 10:18:37.098,1
496,10318,1.69,-0.37,-0.88,24.5,2022-03-04 10:18:37.189,1
497,10340,1.61,-0.83,0.67,24.5,2022-03-04 10:18:37.297,1
498,10360,1.3,-0.5,1.46,24.5,2022-03-04 10:18:37.397,1
499,10380,1.34,-0.39,-0.96,24.5,2022-03-04 10:18:37.498,1
500,10402,1.29,-0.5,0.85,24.5,2022-03-04 10:18:37.596,1
501,10422,1.29,-0.45,1.27,24.5,2022-03-04 10:18:37.696,1
502,10442,1.63,-0.59,-0.71,24.5,2022-03-04 10:18:37.793,1
503,10462,1.25,-1.86,-1.53,24.5,2022-03-04 10:18:37.892,1
504,10482,1.11,-1.58,-0.77,24.5,2022-03-04 10:18:37.991,1
505,10502,0.82,-1.42,0.65,24.5,2022-03-04 10:18:38.091,1
506,10526,1.25,-1.43,0.68,27.0,2022-03-04 10:18:38.189,1
507,10548,1.09,-1.38,0.62,27.0,2022-03-04 10:18:38.299,1
508,10568,0.69,-1.71,-0.68,27.0,2022-03-04 10:18:38.398,1
509,10588,0.81,-1.29,-0.76,27.0,2022-03-04 10:18:38.498,1
510,10610,0.94,-1.19,-0.55,27.0,2022-03-04 10:18:38.598,1
511,10630,0.92,-1.32,0.44,27.0,2022-03-04 10:18:38.698,1
512,10650,0.7,-1.41,-0.77,27.0,2022-03-04 10:18:38.796,1
513,10670,0.61,-0.82,-0.8,27.0,2022-03-04 10:18:38.895,1
514,10690,0.85,-0.56,-1.69,27.0,2022-03-04 10:18:38.995,1
515,10710,0.59,-0.51,1.06,27.0,2022-03-04 10:18:39.093,1
516,10731,0.76,-0.32,-1.07,27.7,2022-03-04 10:18:39.197,1
517,10754,0.42,0.41,-1.07,27.7,2022-03-04 10:18:39.292,1
518,10774,0.66,0.65,0.74,27.7,2022-03-04 10:18:39.391,1
519,10794,0.97,0.68,-1.06,27.7,2022-03-04 10:18:39.490,1
520,10816,0.83,-0.91,0.81,27.7,2022-03-04 10:18:39.589,1
521,10838,0.98,-0.58,-0.68,27.7,2022-03-04 10:18:39.699,1
522,10858,0.89,-0.83,-1.15,27.7,2022-03-04 10:18:39.798,1
523,10878,1.07,-0.89,-0.65,27.7,2022-03-04 10:18:39.898,1
524,10898,1.07,-0.47,-0.37,27.7,2022-03-04 10:18:39.997,1
525,10918,1.02,-0.52,-1.05,27.7,2022-03-04 10:18:40.098,1
526,10942,0.65,-0.46,-0.97,30.6,2022-03-04 10:18:40.195,1
527,10962,0.75,-0.26,0.33,30.6,2022-03-04 10:18:40.295,1
528,10982,0.95,-0.38,-0.7,30.6,2022-03-04 10:18:40.394,1
529,11002,1.26,-0.25,-0.64,30.6,2022-03-04 10:18:40.496,1
530,11024,0.58,-0.22,1.02,30.6,2022-03-04 10:18:40.594,1
531,11044,1.54,-0.28,-0.64,30.6,2022-03-04 10:18:40.694,1
532,11064,0.62,-0.44,-0.95,30.6,2022-03-04 10:18:40.790,1
533,11086,1.32,-0.35,-0.96,30.6,2022-03-04 10:18:40.899,1
534,11106,0.7,-0.76,-1.37,30.6,2022-03-04 10:18:40.999,1
535,11126,0.95,-0.32,-0.91,30.6,2022-03-04 10:18:41.098,1
536,11150,0.74,-0.23,0.63,33.5,2022-03-04 10:18:41.199,1
537,11170,0.61,-0.34,-1.07,33.5,2022-03-04 10:18:41.296,1
538,11190,0.73,-0.34,-0.99,33.5,2022-03-04 10:18:41.397,1
539,11210,1.27,-0.93,-1.12,33.5,2022-03-04 10:18:41.495,1
540,11232,1.04,-0.73,1.14,33.5,2022-03-04 10:18:41.596,1
541,11252,1.11,-0.57,1.22,33.5,2022-03-04 10:18:41.695,1
542,11272,1.35,-0.7,0.7,33.5,2022-03-04 10:18:41.797,1
543,11292,0.72,-0.68,-0.86,33.5,2022-03-04 10:18:41.892,1
544,11312,0.72,-0.73,1.02,33.5,2022-03-04 10:18:41.993,1
545,11332,0.58,-0.66,-0.59,33.5,2022-03-04 10:18:42.094,1
546,11356,-0.73,-0.68,0.77,34.6,2022-03-04 10:18:42.193,1
547,11378,-1.52,-0.75,-1.37,34.6,2022-03-04 10:18:42.299,1
548,11398,-0.84,-0.43,0.59,34.6,2022-03-04 10:18:42.398,1
549,11418,0.78,-0.35,-0.74,34.6,2022-03-04 10:18:42.498,1
550,11440,-0.39,-0.58,-0.76,34.6,2022-03-04 10:18:42.598,1
551,11460,-0.76,-0.42,-0.84,34.6,2022-03-04 10:18:42.697,1
552,11480,-0.89,-0.57,-0.54,34.6,2022-03-04 10:18:42.796,1
553,11500,-0.63,-0.46,1.15,34.6,2022-03-04 10:18:42.895,1
554,11520,-1.9,0.71,0.98,34.6,2022-03-04 10:18:42.994,1
555,11540,-1.02,-0.66,1.31,34.6,2022-03-04 10:18:43.095,1
556,11564,0.72,-0.67,-1.05,36.4,2022-03-04 10:18:43.193,1
557,11584,-1.03,0.5,-1.24,36.4,2022-03-04 10:18:43.292,1
558,11604,1.06,0.69,0.82,36.4,2022-03-04 10:18:43.392,1
559,11624,-1.97,0.57,1.71,36.4,2022-03-04 10:18:43.494,1
560,11648,-1.38,0.53,-0.57,36.4,2022-03-04 10:18:43.599,1
561,11668,1.18,0.6,-1.0,36.4,2022-03-04 10:18:43.699,1
562,11688,0.79,0.64,1.71,36.4,2022-03-04 10:18:43.798,1
563,11708,0.93,0.85,-1.37,36.4,2022-03-04 10:18:43.898,1
564,11728,1.55,0.99,-1.37,36.4,2022-03-04 10:18:43.996,1
565,11748,1.64,0.89,-1.52,36.4,2022-03-04 10:18:44.096,1
566,11772,1.55,0.56,-1.34,39.2,2022-03-04 10:18:44.195,1
567,11792,1.0,-0.59,-1.21,39.2,2022-03-04 10:18:44.295,1
568,11812,1.34,-0.9,1.03,39.2,2022-03-04 10:18:44.394,1
569,11832,1.07,-0.6,0.98,39.2,2022-03-04 10:18:44.494,1
570,11854,0.49,-0.87,-0.75,39.2,2022-03-04 10:18:44.592,1
571,11874,1.31,-0.61,1.1,39.2,2022-03-04 10:18:44.692,1
572,11894,1.07,-0.55,-0.97,39.2,2022-03-04 10:18:44.791,1
573,11914,0.55,-0.81,-0.93,39.2,2022-03-04 10:18:44.891,1
574,11936,1.18,-0.71,-1.51,39.2,2022-03-04 10:18:44.999,1
575,11956,1.19,-0.67,-1.25,39.2,2022-03-04 10:18:45.099,1
576,11980,1.33,-0.36,1.38,40.7,2022-03-04 10:18:45.198,1
577,12000,0.71,-0.57,-1.18,40.7,2022-03-04 10:18:45.298,1
578,12020,2.18,0.46,1.25,40.7,2022-03-04 10:18:45.396,1
579,12040,0.76,-0.5,2.17,40.7,2022-03-04 10:18:45.495,1
580,12062,1.11,-0.83,-1.93,40.7,2022-03-04 10:18:45.595,1
581,12082,1.26,-0.59,-1.38,40.7,2022-03-04 10:18:45.695,1
582,12102,0.73,-0.72,1.52,40.7,2022-03-04 10:18:45.794,1
583,12122,0.9,-0.58,1.86,40.7,2022-03-04 10:18:45.894,1
584,12142,-0.9,-0.83,-1.06,40.7,2022-03-04 10:18:45.992,1
585,12162,1.0,-0.81,1.42,40.7,2022-03-04 10:18:46.091,1
586,12184,1.28,-0.69,-0.67,42.8,2022-03-04 10:18:46.194,1
587,12208,0.74,-0.61,1.19,42.8,2022-03-04 10:18:46.299,1
588,12228,1.5,-0.98,-0.87,42.8,2022-03-04 10:18:46.398,1
589,12248,-0.55,-0.67,-0.76,42.8,2022-03-04 10:18:46.498,1
590,12270,-0.86,-0.76,-0.75,42.8,2022-03-04 10:18:46.597,1
591,12290,-0.53,-0.76,-0.76,42.8,2022-03-04 10:18:46.697,1
592,12310,-0.5,-0.84,-1.37,42.8,2022-03-04 10:18:46.796,1
593,12330,-0.56,-1.2,1.39,42.8,2022-03-04 10:18:46.895,1
594,12350,0.77,-1.3,0.84,42.8,2022-03-04 10:18:46.995,1
595,12370,-0.56,-1.95,0.47,42.8,2022-03-04 10:18:47.094,1
596,12394,0.45,-1.19,-0.37,43.6,2022-03-04 10:18:47.199,1
597,12414,0.87,-1.19,0.39,43.6,2022-03-04 10:18:47.292,1
598,12434,-0.59,-1.24,-1.07,43.6,2022-03-04 10:18:47.391,1
599,12454,0.97,-1.16,-0.68,43.6,2022-03-04 10:18:47.491,1
600,12476,-0.79,-1.16,-0.5,43.6,2022-03-04 10:18:47.593,1
601,12498,-1.38,-1.43,-0.96,43.6,2022-03-04 10:18:47.699,1
602,12518,0.93,-1.44,0.39,43.6,2022-03-04 10:18:47.799,1
603,12538,-0.48,-1.19,0.48,43.6,2022-03-04 10:18:47.898,1
604,12556,0.23,-1.21,-0.44,43.6,2022-03-04 10:18:47.989,1
605,12578,0.54,-1.07,-0.6,43.6,2022-03-04 10:18:48.096,1
606,12602,-0.7,-1.23,0.59,43.6,2022-03-04 10:18:48.196,1
607,12622,0.75,-1.01,-1.05,43.6,2022-03-04 10:18:48.295,1
608,12642,-0.43,-0.95,-0.62,43.6,2022-03-04 10:18:48.395,1
609,12662,1.27,-0.74,0.56,43.6,2022-03-04 10:18:48.494,10
610,12684,-0.65,-0.46,-1.09,43.6,2022-03-04 10:18:48.593,10
611,12704,-0.53,-0.7,-0.64,43.6,2022-03-04 10:18:48.692,10
612,12724,1.01,-0.51,0.73,43.6,2022-03-04 10:18:48.791,10
613,12744,0.48,-0.72,1.02,43.6,2022-03-04 10:18:48.891,10
614,12764,-0.71,-0.55,-0.59,43.6,2022-03-04 10:18:48.994,10
615,12784,-0.38,-0.44,-1.24,43.6,2022-03-04 10:18:49.090,10
616,12810,-0.76,-0.5,-1.42,44.3,2022-03-04 10:18:49.199,10
617,12830,-0.51,-0.6,0.49,44.3,2022-03-04 10:18:49.298,10
618,12850,-0.43,-0.36,-0.68,44.3,2022-03-04 10:18:49.397,10
619,12870,-0.38,-0.46,-0.63,44.3,2022-03-04 10:18:49.496,10
620,12892,0.76,-0.45,0.65,44.3,2022-03-04 10:18:49.595,10
621,12912,-0.96,-0.51,0.78,44.3,2022-03-04 10:18:49.694,10
622,12932,-0.75,-0.52,0.87,44.3,2022-03-04 10:18:49.794,10
623,12952,0.71,0.45,-0.96,44.3,2022-03-04 10:18:49.895,10
624,12972,-1.08,-0.43,0.73,44.3,2022-03-04 10:18:49.993,10
625,12992,-0.88,-0.6,-1.39,44.3,2022-03-04 10:18:50.091,10
626,13016,0.36,0.36,-1.06,45.4,2022-03-04 10:18:50.191,10
627,13036,0.84,0.35,0.93,45.4,2022-03-04 10:18:50.290,10
628,13058,1.2,-0.39,-1.03,45.4,2022-03-04 10:18:50.399,10
629,13078,-1.18,0.5,-0.62,45.4,2022-03-04 10:18:50.498,10
630,13100,-0.77,-0.27,0.9,45.4,2022-03-04 10:18:50.598,10
631,13118,0.89,-0.32,-0.82,45.4,2022-03-04 10:18:50.690,10
632,13140,0.65,-0.58,-1.43,45.4,2022-03-04 10:18:50.796,10
633,13160,0.27,-0.84,-0.86,45.4,2022-03-04 10:18:50.896,4
634,13180,-0.55,-1.07,-0.55,45.4,2022-03-04 10:18:50.995,4
635,13200,0.44,-0.78,-0.95,45.4,2022-03-04 10:18:51.094,4
636,13224,0.99,-1.02,-0.61,46.1,2022-03-04 10:18:51.194,4
637,13244,-0.6,-0.91,-0.68,46.1,2022-03-04 10:18:51.292,4
638,13264,0.6,-1.02,0.56,46.1,2022-03-04 10:18:51.391,4
639,13284,0.64,-1.25,-1.4,46.1,2022-03-04 10:18:51.492,4
640,13306,-0.4,-0.94,-0.88,46.1,2022-03-04 10:18:51.590,4
641,13326,0.86,-0.88,0.65,46.1,2022-03-04 10:18:51.691,4
642,13346,0.64,-0.95,-0.91,46.1,2022-03-04 10:18:51.789,4
643,13368,0.36,-1.09,-0.61,46.1,2022-03-04 10:18:51.898,4
644,13388,0.53,-1.21,-0.51,46.1,2022-03-04 10:18:51.997,4
645,13408,1.1,-1.37,-0.63,46.1,2022-03-04 10:18:52.097,4
646,13432,0.71,-1.39,-0.43,46.1,2022-03-04 10:18:52.198,4
647,13452,-1.0,-1.42,-1.11,45.4,2022-03-04 10:18:52.297,4
648,13472,1.0,-1.64,-0.86,45.4,2022-03-04 10:18:52.394,4
649,13492,0.62,-1.46,0.42,45.4,2022-03-04 10:18:52.493,4
650,13514,0.75,-1.58,0.66,45.4,2022-03-04 10:18:52.595,4
651,13534,1.05,-1.61,-0.69,45.4,2022-03-04 10:18:52.692,4
652,13554,0.67,-1.32,-0.7,45.4,2022-03-04 10:18:52.791,4
653,13574,0.63,-1.44,-0.71,45.4,2022-03-04 10:18:52.891,4
654,13594,0.73,-1.76,-0.84,45.4,2022-03-04 10:18:52.990,4
655,13614,0.47,-1.83,-0.87,45.4,2022-03-04 10:18:53.090,4
656,13640,0.56,-1.79,-0.71,45.4,2022-03-04 10:18:53.199,4
657,13660,0.9,-1.73,0.59,42.8,2022-03-04 10:18:53.297,4
658,13680,0.95,-1.95,-0.71,42.8,2022-03-04 10:18:53.397,4
659,13700,0.68,-2.26,-0.73,42.8,2022-03-04 10:18:53.496,4
660,13722,0.6,-2.05,-0.8,42.8,2022-03-04 10:18:53.595,4
661,13742,1.06,-2.15,-0.37,42.8,2022-03-04 10:18:53.695,4
662,13762,0.83,-2.09,-1.27,42.8,2022-03-04 10:18:53.794,4
663,13782,0.72,-2.1,-1.14,42.8,2022-03-04 10:18:53.893,4
664,13802,0.99,-2.32,-1.58,42.8,2022-03-04 10:18:53.993,4
665,13822,0.88,-2.04,-0.79,42.8,2022-03-04 10:18:54.092,4
666,13846,-0.67,-2.25,-1.13,42.8,2022-03-04 10:18:54.191,4
667,13866,0.72,-2.18,1.19,38.9,2022-03-04 10:18:54.290,4
668,13886,0.63,-2.08,-1.07,38.9,2022-03-04 10:18:54.390,4
669,13908,0.39,-2.3,-1.55,38.9,2022-03-04 10:18:54.499,4
670,13928,0.81,-2.06,0.82,38.9,2022-03-04 10:18:54.589,4
671,13950,-0.66,-2.12,-0.82,38.9,2022-03-04 10:18:54.697,4
672,13970,-0.61,-2.1,0.85,38.9,2022-03-04 10:18:54.796,4
673,13990,0.54,-2.2,0.57,38.9,2022-03-04 10:18:54.896,4
674,14010,-0.71,-1.86,-0.66,38.9,2022-03-04 10:18:54.995,4
675,14030,0.6,-1.82,-0.71,38.9,2022-03-04 10:18:55.094,4
676,14054,0.28,-1.56,0.81,38.9,2022-03-04 10:18:55.194,4
677,14074,-0.24,-1.32,-0.79,33.8,2022-03-04 10:18:55.293,4
678,14094,0.3,-1.4,-1.12,33.8,2022-03-04 10:18:55.392,4
679,14114,0.39,-1.43,0.52,33.8,2022-03-04 10:18:55.491,4
680,14136,0.38,-1.61,-0.58,33.8,2022-03-04 10:18:55.594,4
681,14156,0.53,-1.54,-0.8,33.8,2022-03-04 10:18:55.690,4
682,14176,0.32,-1.57,-0.81,33.8,2022-03-04 10:18:55.789,4
683,14196,-0.27,-1.47,-0.36,33.8,2022-03-04 10:18:55.888,4
684,14218,0.32,-1.55,0.45,33.8,2022-03-04 10:18:55.998,4
685,14238,0.34,-1.46,-0.41,33.8,2022-03-04 10:18:56.097,4
686,14262,0.49,-1.61,0.58,33.8,2022-03-04 10:18:56.197,4
687,14282,0.32,-1.46,-0.71,29.5,2022-03-04 10:18:56.295,4
688,14302,-0.23,-1.43,-0.89,29.5,2022-03-04 10:18:56.394,4
689,14322,0.27,-1.36,-0.5,29.5,2022-03-04 10:18:56.495,4
690,14344,0.42,-1.35,0.55,29.5,2022-03-04 10:18:56.596,4
691,14364,0.4,-1.27,-0.43,29.5,2022-03-04 10:18:56.692,4
692,14384,0.3,-1.29,-0.45,29.5,2022-03-04 10:18:56.792,4
693,14404,0.32,-1.41,0.25,29.5,2022-03-04 10:18:56.891,4
694,14424,0.42,-1.22,-0.64,29.5,2022-03-04 10:18:56.990,4
695,14444,0.36,-1.15,-0.41,29.5,2022-03-04 10:18:57.090,4
696,14468,0.13,-1.19,-0.52,29.5,2022-03-04 10:18:57.189,4
697,14490,0.37,-1.18,0.21,23.8,2022-03-04 10:18:57.299,4
698,14510,0.72,-1.15,-0.51,23.8,2022-03-04 10:18:57.399,4
699,14530,0.29,-1.18,-0.64,23.8,2022-03-04 10:18:57.496,4
700,14552,0.42,-1.08,-0.69,23.8,2022-03-04 10:18:57.595,4
701,14572,-0.38,-1.05,-0.46,23.8,2022-03-04 10:18:57.695,4
702,14592,0.44,-1.18,-0.56,23.8,2022-03-04 10:18:57.795,4
703,14612,0.53,-1.15,-0.58,23.8,2022-03-04 10:18:57.893,4
704,14632,0.5,-1.07,-0.54,23.8,2022-03-04 10:18:57.992,4
705,14652,0.23,-1.12,0.47,23.8,2022-03-04 10:18:58.093,4
706,14672,0.65,-0.99,0.3,23.8,2022-03-04 10:18:58.192,4
707,14696,0.35,-0.94,-0.52,18.0,2022-03-04 10:18:58.290,4
708,14716,-0.37,-0.97,-0.39,18.0,2022-03-04 10:18:58.390,4
709,14738,0.31,-0.99,0.23,18.0,2022-03-04 10:18:58.499,4
710,14760,0.29,-0.96,-0.55,18.0,2022-03-04 10:18:58.598,4
711,14780,0.45,-0.99,-0.54,18.0,2022-03-04 10:18:58.698,4
712,14800,0.18,-0.93,-0.33,18.0,2022-03-04 10:18:58.798,4
713,14820,0.43,-0.82,-0.41,18.0,2022-03-04 10:18:58.898,4
714,14840,0.28,-0.82,-0.59,18.0,2022-03-04 10:18:58.996,4
715,14860,-0.36,-0.88,-0.34,18.0,2022-03-04 10:18:59.095,4
716,14884,-0.31,-0.98,-0.25,18.0,2022-03-04 10:18:59.194,4
717,14904,0.47,-0.86,-0.36,11.9,2022-03-04 10:18:59.293,4
718,14924,0.37,-0.69,-0.36,11.9,2022-03-04 10:18:59.392,4
719,14944,0.25,-0.71,-0.3,11.9,2022-03-04 10:18:59.492,4
720,14966,-0.21,-0.59,-0.38,11.9,2022-03-04 10:18:59.592,4
721,14986,-0.3,-0.33,-0.56,11.9,2022-03-04 10:18:59.690,4
722,15008,-0.19,-0.19,-0.25,11.9,2022-03-04 10:18:59.799,4
723,15028,0.21,-0.13,-0.48,11.9,2022-03-04 10:18:59.899,4
724,15048,0.15,-0.12,-0.25,11.9,2022-03-04 10:18:59.999,4
725,15068,0.23,-0.12,0.25,11.9,2022-03-04 10:19:00.098,4
726,15086,-0.23,-0.34,-0.18,11.9,2022-03-04 10:19:00.193,4
727,15110,0.21,-0.33,-0.27,11.9,2022-03-04 10:19:00.289,4
728,15130,0.2,-0.32,-0.21,6.5,2022-03-04 10:19:00.388,4
729,15152,0.2,-0.32,-0.31,6.5,2022-03-04 10:19:00.495,4
730,15174,0.15,-0.38,-0.2,6.5,2022-03-04 10:19:00.594,4
731,15194,-0.25,-0.41,-0.28,6.5,2022-03-04 10:19:00.692,4
732,15214,0.19,-0.36,-0.21,6.5,2022-03-04 10:19:00.792,4
733,15234,0.24,-0.36,-0.23,6.5,2022-03-04 10:19:00.891,4
734,15254,0.17,-0.41,-0.31,6.5,2022-03-04 10:19:00.991,4
735,15274,-0.32,0.61,0.23,6.5,2022-03-04 10:19:01.090,4
736,15300,-0.27,1.42,-0.21,6.5,2022-03-04 10:19:01.199,4
737,15318,-0.24,1.55,-0.26,1.8,2022-03-04 10:19:01.289,4
738,15338,-0.32,1.67,-0.38,1.8,2022-03-04 10:19:01.389,4
739,15358,-0.26,1.59,-0.39,1.8,2022-03-04 10:19:01.490,4
740,15382,-0.27,1.16,-0.27,1.8,2022-03-04 10:19:01.597,4
741,15402,-0.29,1.03,-0.16,1.8,2022-03-04 10:19:01.697,4
742,15422,-0.27,1.12,-0.18,1.8,2022-03-04 10:19:01.797,4
743,15442,-0.3,1.24,-0.31,1.8,2022-03-04 10:19:01.896,4
744,15462,-0.22,1.17,-0.28,1.8,2022-03-04 10:19:01.994,4
745,15482,-0.3,1.14,-0.21,1.8,2022-03-04 10:19:02.095,4
746,15506,-0.22,1.16,-0.19,1.8,2022-03-04 10:19:02.191,4
747,15526,-0.24,1.16,-0.25,1.8,2022-03-04 10:19:02.291,4
748,15546,-0.19,1.09,-0.14,1.8,2022-03-04 10:19:02.390,4
749,15568,-0.31,1.13,-0.22,1.8,2022-03-04 10:19:02.499,4
750,15590,-0.25,1.09,-0.22,1.8,2022-03-04 10:19:02.599,4
751,15610,-0.25,1.06,-0.23,1.8,2022-03-04 10:19:02.698,4
752,15630,-0.2,1.05,-0.27,1.8,2022-03-04 10:19:02.798,4
753,15650,-0.29,1.07,-0.17,1.8,2022-03-04 10:19:02.898,4
754,15670,-0.25,1.12,-0.2,1.8,2022-03-04 10:19:02.998,4
755,15690,-0.3,1.07,-0.25,1.8,2022-03-04 10:19:03.098,4
756,15710,-0.22,0.98,-0.24,1.8,2022-03-04 10:19:03.196,4
757,15734,-0.33,0.93,-0.31,0.0,2022-03-04 10:19:03.295,4
758,15754,-0.28,1.03,-0.29,0.0,2022-03-04 10:19:03.396,4
759,15774,-0.26,0.97,-0.23,0.0,2022-03-04 10:19:03.492,4
760,15796,-0.24,0.96,-0.23,0.0,2022-03-04 10:19:03.591,4
761,15816,-0.28,0.94,-0.31,0.0,2022-03-04 10:19:03.691,4
762,15836,-0.26,0.94,-0.31,0.0,2022-03-04 10:19:03.790,4
763,15858,-0.29,0.92,-0.19,0.0,2022-03-04 10:19:03.899,4
764,15878,-0.23,0.91,-0.25,0.0,2022-03-04 10:19:03.999,4
765,15898,-0.28,0.89,-0.24,0.0,2022-03-04 10:19:04.098,4
766,15922,-0.14,0.82,-0.3,0.0,2022-03-04 10:19:04.198,4
767,15942,-0.28,0.88,-0.29,0.0,2022-03-04 10:19:04.296,4
768,15962,-0.17,0.85,-0.23,0.0,2022-03-04 10:19:04.396,4
769,15982,-0.26,0.77,-0.25,0.0,2022-03-04 10:19:04.495,0
770,16004,-0.25,0.66,-0.3,0.0,2022-03-04 10:19:04.595,0
771,16024,-0.17,0.58,-0.28,0.0,2022-03-04 10:19:04.695,0
772,16044,-0.23,0.52,-0.24,0.0,2022-03-04 10:19:04.794,0
773,16064,-0.18,0.49,-0.24,0.0,2022-03-04 10:19:04.894,0
774,16084,-0.26,0.5,-0.32,0.0,2022-03-04 10:19:04.991,0
775,16104,-0.21,0.43,-0.26,0.0,2022-03-04 10:19:05.091,0
776,16130,-0.17,0.42,-0.23,0.0,2022-03-04 10:19:05.199,0
777,16150,-0.26,0.46,-0.28,0.0,2022-03-04 10:19:05.298,0
778,16170,-0.2,0.45,-0.3,0.0,2022-03-04 10:19:05.398,0
779,16190,-0.22,0.42,-0.21,0.0,2022-03-04 10:19:05.497,0
780,16212,-0.2,0.44,-0.22,0.0,2022-03-04 10:19:05.597,0
781,16232,-0.25,0.37,-0.33,0.0,2022-03-04 10:19:05.696,0
782,16252,-0.23,0.37,-0.29,0.0,2022-03-04 10:19:05.795,0
783,16272,-0.24,0.4,-0.3,0.0,2022-03-04 10:19:05.894,0
784,16292,-0.94,0.76,-1.27,0.0,2022-03-04 10:19:05.994,0
785,16312,-0.26,0.39,0.35,0.0,2022-03-04 10:19:06.094,0
786,16332,-0.27,0.35,-0.35,0.0,2022-03-04 10:19:06.195,0
787,16356,-0.16,0.33,-0.21,0.0,2022-03-04 10:19:06.293,0
788,16376,-0.15,0.32,-0.25,0.0,2022-03-04 10:19:06.390,0
789,16396,-0.23,0.35,-0.33,0.0,2022-03-04 10:19:06.490,0
790,16418,-0.25,0.31,-0.23,0.0,2022-03-04 10:19:06.593,0
791,16440,-0.18,0.28,-0.26,0.0,2022-03-04 10:19:06.698,0
792,16460,-0.25,0.34,-0.24,0.0,2022-03-04 10:19:06.798,0
793,16480,-0.18,0.29,-0.46,0.0,2022-03-04 10:19:06.897,0
794,16500,-0.22,0.26,-0.24,0.0,2022-03-04 10:19:06.996,0
795,16520,-0.29,0.29,0.37,0.0,2022-03-04 10:19:07.096,0
796,16536,-0.17,0.27,-0.41,0.0,2022-03-04 10:19:07.166,0
