,LineNumber,Accel_X,Accel_Y,Accel_Z,Velocity,RealTime,Label
0,28,-0.16,0.15,-0.29,0.0,2022-03-04 10:15:28.598,0
1,48,-0.22,0.16,-0.25,0.0,2022-03-04 10:15:28.697,0
2,68,-0.14,0.25,-0.26,0.0,2022-03-04 10:15:28.796,0
3,88,-0.27,0.28,-0.32,0.0,2022-03-04 10:15:28.895,0
4,108,-0.24,0.16,-0.3,0.0,2022-03-04 10:15:28.995,0
5,128,-0.17,0.12,-0.26,0.0,2022-03-04 10:15:29.094,0
6,152,-0.26,0.17,-0.23,0.0,2022-03-04 10:15:29.193,0
7,172,-0.15,0.16,-0.29,0.0,2022-03-04 10:15:29.293,0
8,192,-0.26,0.15,-0.22,0.0,2022-03-04 10:15:29.393,0
9,212,-0.14,0.17,-0.2,0.0,2022-03-04 10:15:29.491,0
10,236,-0.28,0.12,-0.27,0.0,2022-03-04 10:15:29.599,0
11,256,-0.2,0.16,-0.31,0.0,2022-03-04 10:15:29.699,0
12,276,-0.18,0.15,-0.29,0.0,2022-03-04 10:15:29.798,0
13,296,-0.23,0.14,-0.25,0.0,2022-03-04 10:15:29.898,0
14,316,-0.23,0.15,-0.24,0.0,2022-03-04 10:15:29.996,0
15,336,-0.23,0.13,-0.26,0.0,2022-03-04 10:15:30.099,0
16,356,-0.23,0.16,-0.36,0.0,2022-03-04 10:15:30.195,0
17,380,-0.1,0.17,-0.31,0.0,2022-03-04 10:15:30.295,0
18,400,-0.27,0.15,-0.21,0.0,2022-03-04 10:15:30.394,0
19,420,-0.18,0.1,-0.22,0.0,2022-03-04 10:15:30.493,0
20,442,-0.23,0.15,-0.25,0.0,2022-03-04 10:15:30.593,0
21,462,-0.16,0.17,-0.27,0.0,2022-03-04 10:15:30.692,0
22,482,-0.24,0.17,-0.26,0.0,2022-03-04 10:15:30.792,0
23,502,-0.16,0.16,-0.23,0.0,2022-03-04 10:15:30.890,0
24,522,-0.21,0.1,-0.33,0.0,2022-03-04 10:15:30.994,0
25,542,-0.19,0.18,-0.27,0.0,2022-03-04 10:15:31.091,0
26,568,-0.25,0.14,-0.19,0.0,2022-03-04 10:15:31.198,0
27,588,-0.16,0.16,-0.27,0.0,2022-03-04 10:15:31.297,0
28,608,-0.23,0.15,-0.24,0.0,2022-03-04 10:15:31.396,0
29,628,-0.18,0.1,-0.23,0.0,2022-03-04 10:15:31.496,0
30,650,-0.23,0.16,-0.18,0.0,2022-03-04 10:15:31.595,0
31,670,-0.21,0.15,-0.24,0.0,2022-03-04 10:15:31.694,0
32,690,-0.24,0.15,-0.24,0.0,2022-03-04 10:15:31.793,0
33,710,-0.23,0.16,-0.25,0.0,2022-03-04 10:15:31.892,0
34,730,-0.17,0.11,-0.18,0.0,2022-03-04 10:15:31.992,0
35,750,-0.22,0.13,-0.28,0.0,2022-03-04 10:15:32.092,0
36,774,-0.19,0.15,-0.24,0.0,2022-03-04 10:15:32.190,0
37,796,-0.24,0.16,-0.2,0.0,2022-03-04 10:15:32.299,0
38,816,-0.17,0.14,-0.22,0.0,2022-03-04 10:15:32.398,0
39,836,-0.25,0.12,-0.28,0.0,2022-03-04 10:15:32.498,0
40,858,-0.15,0.14,-0.24,0.0,2022-03-04 10:15:32.597,0
41,878,-0.17,0.25,-0.29,0.0,2022-03-04 10:15:32.696,0
42,898,-0.29,0.23,-0.4,0.0,2022-03-04 10:15:32.796,0
43,918,-0.22,0.13,-0.26,0.0,2022-03-04 10:15:32.895,0
44,938,-0.22,0.1,-0.25,0.0,2022-03-04 10:15:32.994,0
45,958,-0.1,0.12,-0.26,0.0,2022-03-04 10:15:33.097,0
46,978,-0.17,0.13,-0.22,0.0,2022-03-04 10:15:33.194,0
47,1002,-0.23,0.15,-0.28,0.0,2022-03-04 10:15:33.292,0
48,1022,-0.21,-0.27,-0.47,0.0,2022-03-04 10:15:33.397,0
49,1042,0.25,-0.25,-0.53,0.0,2022-03-04 10:15:33.491,0
50,1064,-0.22,0.1,-0.27,0.0,2022-03-04 10:15:33.590,0
51,1086,-0.2,0.12,-0.27,0.0,2022-03-04 10:15:33.699,0
52,1106,-0.22,0.15,-0.25,0.0,2022-03-04 10:15:33.799,0
53,1126,-0.13,0.07,-0.25,0.0,2022-03-04 10:15:33.898,0
54,1146,-0.24,0.11,-0.31,0.0,2022-03-04 10:15:33.998,0
55,1166,-0.25,0.18,-0.21,0.0,2022-03-04 10:15:34.096,0
56,1190,0.12,0.06,-0.25,0.0,2022-03-04 10:15:34.195,0
57,1210,-0.2,0.12,-0.3,0.0,2022-03-04 10:15:34.294,0
58,1230,-0.21,-0.05,-0.26,0.0,2022-03-04 10:15:34.394,0
59,1250,-0.23,0.09,-0.27,0.0,2022-03-04 10:15:34.494,0
60,1272,-0.17,0.11,-0.3,0.0,2022-03-04 10:15:34.594,0
61,1292,-0.22,0.07,-0.27,0.0,2022-03-04 10:15:34.692,0
62,1312,-0.22,0.11,-0.23,0.0,2022-03-04 10:15:34.794,0
63,1332,-0.27,0.06,-0.29,0.0,2022-03-04 10:15:34.890,0
64,1352,-0.16,0.11,-0.3,0.0,2022-03-04 10:15:34.990,0
65,1374,-0.24,0.15,-0.23,0.0,2022-03-04 10:15:35.099,0
66,1396,-0.18,0.1,-0.18,0.0,2022-03-04 10:15:35.189,0
67,1418,-0.26,0.15,-0.31,0.0,2022-03-04 10:15:35.298,0
68,1438,-0.19,0.04,-0.21,0.0,2022-03-04 10:15:35.396,0
69,1458,-0.17,0.09,-0.23,0.0,2022-03-04 10:15:35.495,0
70,1480,-0.22,0.15,-0.26,0.0,2022-03-04 10:15:35.595,0
71,1500,-0.24,0.1,-0.27,0.0,2022-03-04 10:15:35.694,0
72,1520,-0.19,0.11,-0.23,0.0,2022-03-04 10:15:35.794,0
73,1540,-0.18,0.14,-0.25,0.0,2022-03-04 10:15:35.893,0
74,1560,-0.18,0.12,-0.27,0.0,2022-03-04 10:15:35.992,0
75,1580,-0.24,-0.1,0.24,0.0,2022-03-04 10:15:36.093,0
76,1600,-0.28,0.1,-0.27,0.0,2022-03-04 10:15:36.192,0
77,1624,0.13,0.1,-0.34,0.0,2022-03-04 10:15:36.290,0
78,1644,-0.18,0.11,-0.25,0.0,2022-03-04 10:15:36.389,0
79,1664,-0.38,0.13,-0.31,0.0,2022-03-04 10:15:36.490,0
80,1688,0.16,0.05,-0.28,0.0,2022-03-04 10:15:36.598,0
81,1708,-0.2,0.05,-0.25,0.0,2022-03-04 10:15:36.697,0
82,1728,-0.22,-0.1,-0.32,0.0,2022-03-04 10:15:36.796,0
83,1748,-0.22,0.11,-0.56,0.0,2022-03-04 10:15:36.896,1
84,1768,0.26,0.13,-0.35,0.0,2022-03-04 10:15:36.995,1
85,1788,0.3,0.19,-0.39,0.0,2022-03-04 10:15:37.095,1
86,1812,-0.38,0.63,-0.34,0.0,2022-03-04 10:15:37.195,1
87,1832,-0.44,0.85,-0.34,0.0,2022-03-04 10:15:37.292,1
88,1852,-0.34,0.8,-0.45,0.0,2022-03-04 10:15:37.393,1
89,1872,-0.45,0.98,-0.39,0.0,2022-03-04 10:15:37.491,1
90,1894,-0.49,1.27,-0.48,0.0,2022-03-04 10:15:37.590,1
91,1914,-0.57,1.69,0.35,0.0,2022-03-04 10:15:37.690,1
92,1936,-0.7,1.83,0.49,0.0,2022-03-04 10:15:37.799,1
93,1956,-0.77,2.07,-0.64,0.0,2022-03-04 10:15:37.899,1
94,1976,-0.86,1.99,-0.95,0.0,2022-03-04 10:15:37.999,1
95,1996,-0.88,2.14,-0.8,0.0,2022-03-04 10:15:38.096,1
96,2020,-0.71,2.02,0.98,0.0,2022-03-04 10:15:38.196,1
97,2040,-1.03,2.11,-0.98,0.0,2022-03-04 10:15:38.295,1
98,2060,-0.85,2.18,-1.13,0.0,2022-03-04 10:15:38.394,1
99,2080,-0.93,2.47,0.87,0.0,2022-03-04 10:15:38.493,1
100,2102,-0.83,2.5,-1.26,0.0,2022-03-04 10:15:38.593,1
101,2122,-1.06,2.62,1.13,0.0,2022-03-04 10:15:38.692,1
102,2142,-1.09,2.5,-1.09,0.0,2022-03-04 10:15:38.791,1
103,2162,-0.86,2.57,0.88,0.0,2022-03-04 10:15:38.890,1
104,2182,-1.26,2.53,-1.6,0.0,2022-03-04 10:15:38.990,1
105,2202,-1.11,2.57,1.01,0.0,2022-03-04 10:15:39.089,1
106,2226,-1.14,2.59,1.74,10.4,2022-03-04 10:15:39.189,1
107,2248,-0.89,2.55,-1.23,10.4,2022-03-04 10:15:39.299,1
108,2268,-1.11,2.42,-0.7,10.4,2022-03-04 10:15:39.399,1
109,2288,-0.55,0.89,-0.84,10.4,2022-03-04 10:15:39.496,1
110,2310,-0.47,0.75,0.61,10.4,2022-03-04 10:15:39.596,1
111,2330,-0.47,1.79,-0.41,10.4,2022-03-04 10:15:39.695,1
112,2350,-0.49,1.82,-0.58,10.4,2022-03-04 10:15:39.794,1
113,2370,0.74,1.37,-0.81,10.4,2022-03-04 10:15:39.893,1
114,2390,0.32,0.93,-0.54,10.4,2022-03-04 10:15:39.992,1
115,2410,-0.74,1.31,-0.6,10.4,2022-03-04 10:15:40.093,1
116,2430,-0.63,1.42,-1.01,10.4,2022-03-04 10:15:40.193,1
117,2454,-0.62,1.28,0.68,15.5,2022-03-04 10:15:40.290,1
118,2474,-0.32,1.12,-1.17,15.5,2022-03-04 10:15:40.390,1
119,2496,-0.56,0.84,-0.75,15.5,2022-03-04 10:15:40.499,1
120,2518,-0.46,0.96,-0.76,15.5,2022-03-04 10:15:40.599,1
121,2538,0.47,0.8,-0.87,15.5,2022-03-04 10:15:40.699,1
122,2558,-0.45,1.11,0.78,15.5,2022-03-04 10:15:40.797,1
123,2578,-0.98,1.35,-1.12,15.5,2022-03-04 10:15:40.897,1
124,2598,-0.6,1.41,-0.42,15.5,2022-03-04 10:15:40.995,1
125,2618,-0.56,1.15,-0.67,15.5,2022-03-04 10:15:41.095,1
126,2642,-1.17,0.86,-0.62,19.4,2022-03-04 10:15:41.194,1
127,2662,-1.65,1.19,0.62,19.4,2022-03-04 10:15:41.292,1
128,2682,0.78,0.99,0.72,19.4,2022-03-04 10:15:41.392,1
129,2702,-0.65,0.86,-1.01,19.4,2022-03-04 10:15:41.491,1
130,2724,-0.86,0.67,-0.64,19.4,2022-03-04 10:15:41.590,1
131,2744,-1.13,0.54,-0.85,19.4,2022-03-04 10:15:41.690,1
132,2766,1.32,-0.33,-0.69,19.4,2022-03-04 10:15:41.799,1
133,2786,-0.84,-0.27,-0.76,19.4,2022-03-04 10:15:41.899,1
134,2806,-0.81,-0.74,-0.75,19.4,2022-03-04 10:15:41.998,1
135,2824,-0.56,-0.95,-0.77,19.4,2022-03-04 10:15:42.087,1
136,2850,0.44,-0.95,-0.56,22.3,2022-03-04 10:15:42.197,1
137,2870,0.57,-0.79,-0.37,22.3,2022-03-04 10:15:42.297,1
138,2890,0.44,-0.65,-0.69,22.3,2022-03-04 10:15:42.395,1
139,2910,0.65,-0.88,-0.74,22.3,2022-03-04 10:15:42.494,1
140,2932,0.44,-0.87,0.87,22.3,2022-03-04 10:15:42.593,1
141,2952,0.43,-0.92,0.63,22.3,2022-03-04 10:15:42.693,1
142,2972,-0.5,-0.86,-0.95,22.3,2022-03-04 10:15:42.791,1
143,2992,0.56,-0.83,0.38,22.3,2022-03-04 10:15:42.891,1
144,3012,0.46,-0.87,-0.46,22.3,2022-03-04 10:15:42.990,1
145,3034,0.53,-0.8,0.64,22.3,2022-03-04 10:15:43.099,1
146,3058,-0.51,-0.37,-1.11,22.7,2022-03-04 10:15:43.198,1
147,3076,-0.53,-0.28,-0.9,22.7,2022-03-04 10:15:43.289,1
148,3096,0.46,0.52,0.52,22.7,2022-03-04 10:15:43.387,1
149,3118,-0.56,0.71,0.84,22.7,2022-03-04 10:15:43.497,1
150,3140,-0.75,0.83,-1.27,22.7,2022-03-04 10:15:43.596,1
151,3160,0.57,0.86,-1.45,22.7,2022-03-04 10:15:43.696,1
152,3180,-0.75,-0.53,-0.51,22.7,2022-03-04 10:15:43.799,1
153,3200,-0.98,0.79,0.46,22.7,2022-03-04 10:15:43.893,1
154,3220,-0.48,0.42,-1.29,22.7,2022-03-04 10:15:43.993,1
155,3240,0.56,0.73,-0.77,22.7,2022-03-04 10:15:44.092,1
156,3262,0.93,0.73,-0.49,25.6,2022-03-04 10:15:44.192,1
157,3284,-0.97,0.33,0.8,25.6,2022-03-04 10:15:44.290,1
158,3304,1.01,0.75,-1.25,25.6,2022-03-04 10:15:44.390,1
159,3326,0.77,0.65,-1.06,25.6,2022-03-04 10:15:44.499,1
160,3346,-0.92,0.63,-1.16,25.6,2022-03-04 10:15:44.588,1
161,3368,-0.96,0.82,0.84,25.6,2022-03-04 10:15:44.698,1
162,3388,1.06,0.56,-1.27,25.6,2022-03-04 10:15:44.797,1
163,3408,-0.34,0.46,1.21,25.6,2022-03-04 10:15:44.897,1
164,3428,-1.09,0.53,-0.95,25.6,2022-03-04 10:15:44.997,1
165,3448,-0.74,0.76,1.36,25.6,2022-03-04 10:15:45.095,1
166,3472,1.11,0.83,-1.1,28.8,2022-03-04 10:15:45.196,1
167,3492,-1.3,0.54,-1.29,28.8,2022-03-04 10:15:45.295,1
168,3512,0.58,0.46,-1.33,28.8,2022-03-04 10:15:45.392,1
169,3532,-0.54,0.43,0.57,28.8,2022-03-04 10:15:45.492,1
170,3554,1.17,-0.29,1.11,28.8,2022-03-04 10:15:45.591,1
171,3574,0.58,0.32,-0.52,28.8,2022-03-04 10:15:45.690,1
172,3596,-0.38,-0.29,-1.2,28.8,2022-03-04 10:15:45.799,1
173,3616,-0.55,0.27,0.66,28.8,2022-03-04 10:15:45.898,1
174,3636,0.96,0.44,-0.83,28.8,2022-03-04 10:15:45.998,1
175,3656,0.66,0.36,-1.03,28.8,2022-03-04 10:15:46.099,1
176,3680,-0.64,0.41,0.93,31.3,2022-03-04 10:15:46.196,1
177,3700,0.6,0.6,1.09,31.3,2022-03-04 10:15:46.295,1
178,3720,-0.76,0.49,-1.33,31.3,2022-03-04 10:15:46.395,1
179,3740,-0.85,0.83,-1.28,31.3,2022-03-04 10:15:46.494,1
180,3762,-0.67,0.3,1.32,31.3,2022-03-04 10:15:46.595,1
181,3782,-0.7,0.58,1.15,31.3,2022-03-04 10:15:46.693,1
182,3802,-2.34,0.57,-2.05,31.3,2022-03-04 10:15:46.794,1
183,3822,0.94,0.43,-1.08,31.3,2022-03-04 10:15:46.891,1
184,3842,0.87,0.59,-1.58,31.3,2022-03-04 10:15:46.994,1
185,3862,-1.02,1.08,-2.02,31.3,2022-03-04 10:15:47.093,1
186,3888,-0.86,0.35,-2.32,33.8,2022-03-04 10:15:47.199,1
187,3908,0.96,-0.56,0.85,33.8,2022-03-04 10:15:47.298,1
188,3928,0.37,-1.03,-0.73,33.8,2022-03-04 10:15:47.398,1
189,3948,-0.47,-0.93,0.8,33.8,2022-03-04 10:15:47.497,1
190,3970,0.75,-0.86,0.71,33.8,2022-03-04 10:15:47.596,1
191,3990,0.47,-1.02,-0.93,33.8,2022-03-04 10:15:47.696,1
192,4010,0.52,-0.87,0.39,33.8,2022-03-04 10:15:47.794,1
193,4030,0.69,-0.92,0.59,33.8,2022-03-04 10:15:47.894,1
194,4050,-0.77,-0.93,0.84,33.8,2022-03-04 10:15:47.994,1
195,4070,0.62,-0.87,-0.78,33.8,2022-03-04 10:15:48.094,1
196,4094,0.51,-1.05,0.8,34.6,2022-03-04 10:15:48.192,1
197,4114,1.05,-1.01,-0.68,34.6,2022-03-04 10:15:48.292,1
198,4134,0.35,-0.5,1.12,34.6,2022-03-04 10:15:48.393,1
199,4156,-0.81,-0.24,1.09,34.6,2022-03-04 10:15:48.499,1
200,4176,0.45,0.31,0.92,34.6,2022-03-04 10:15:48.589,1
201,4198,-0.53,-0.58,-0.64,34.6,2022-03-04 10:15:48.698,1
202,4218,0.68,-0.59,1.13,34.6,2022-03-04 10:15:48.797,1
203,4238,-0.99,-0.44,-0.99,34.6,2022-03-04 10:15:48.896,1
204,4258,0.92,0.48,-1.21,34.6,2022-03-04 10:15:48.995,1
205,4278,-0.74,-0.76,-0.57,34.6,2022-03-04 10:15:49.095,1
206,4302,0.85,0.49,-0.97,36.4,2022-03-04 10:15:49.194,1
207,4322,1.05,0.32,0.73,36.4,2022-03-04 10:15:49.295,1
208,4342,-1.13,0.6,0.95,36.4,2022-03-04 10:15:49.393,1
209,4362,1.28,0.42,-0.7,36.4,2022-03-04 10:15:49.493,1
210,4384,-0.58,-0.55,1.53,36.4,2022-03-04 10:15:49.594,1
211,4404,-1.37,0.51,1.94,36.4,2022-03-04 10:15:49.690,1
212,4426,-0.98,-0.62,0.92,36.4,2022-03-04 10:15:49.799,1
213,4446,-0.63,-0.6,0.78,36.4,2022-03-04 10:15:49.899,1
214,4466,-0.67,-0.43,1.64,36.4,2022-03-04 10:15:49.998,1
215,4486,0.81,-0.6,1.66,36.4,2022-03-04 10:15:50.098,1
216,4510,-0.67,-0.42,-1.25,38.5,2022-03-04 10:15:50.198,1
217,4530,-0.64,-0.58,-0.7,38.5,2022-03-04 10:15:50.296,1
218,4550,-0.69,-0.39,1.65,38.5,2022-03-04 10:15:50.395,1
219,4570,-0.69,0.53,-0.93,38.5,2022-03-04 10:15:50.495,1
220,4592,-0.89,-0.54,-0.99,38.5,2022-03-04 10:15:50.594,1
221,4612,1.02,-0.63,0.93,38.5,2022-03-04 10:15:50.694,1
222,4632,0.45,-0.53,1.34,38.5,2022-03-04 10:15:50.793,1
223,4652,1.02,0.6,-1.06,38.5,2022-03-04 10:15:50.892,1
224,4672,-0.9,0.77,1.35,38.5,2022-03-04 10:15:50.992,1
225,4692,-1.49,-0.73,-1.31,38.5,2022-03-04 10:15:51.093,1
226,4716,-1.9,0.56,-1.62,40.3,2022-03-04 10:15:51.193,1
227,4738,-0.59,-0.95,1.08,40.3,2022-03-04 10:15:51.298,1
228,4758,-1.77,-0.99,2.13,40.3,2022-03-04 10:15:51.398,1
229,4778,1.91,-0.75,1.43,40.3,2022-03-04 10:15:51.497,1
230,4800,-0.9,-0.37,-2.2,40.3,2022-03-04 10:15:51.596,1
231,4820,1.56,-0.53,-1.55,40.3,2022-03-04 10:15:51.695,1
232,4840,-0.63,-0.64,-1.84,40.3,2022-03-04 10:15:51.797,1
233,4860,-1.05,-0.46,-1.6,40.3,2022-03-04 10:15:51.894,1
234,4880,0.32,-0.66,-1.51,40.3,2022-03-04 10:15:51.993,1
235,4900,0.99,-1.06,-1.47,40.3,2022-03-04 10:15:52.094,1
236,4924,1.21,-0.57,1.56,42.1,2022-03-04 10:15:52.192,1
237,4944,0.61,-0.69,-1.23,42.1,2022-03-04 10:15:52.291,1
238,4964,-1.04,-0.57,2.06,42.1,2022-03-04 10:15:52.391,1
239,4986,1.03,-0.78,-1.52,42.1,2022-03-04 10:15:52.499,1
240,5008,1.18,-1.04,-1.77,42.1,2022-03-04 10:15:52.599,1
241,5028,1.41,-1.05,-2.02,42.1,2022-03-04 10:15:52.699,1
242,5048,0.71,-0.99,-1.2,42.1,2022-03-04 10:15:52.797,1
243,5068,0.88,-1.03,-1.2,42.1,2022-03-04 10:15:52.897,1
244,5088,0.97,-1.03,1.18,42.1,2022-03-04 10:15:52.996,1
245,5108,1.03,-0.99,0.92,42.1,2022-03-04 10:15:53.095,1
246,5132,0.95,-1.22,-1.58,42.5,2022-03-04 10:15:53.195,1
247,5152,-1.47,-1.4,-1.47,42.5,2022-03-04 10:15:53.294,1
248,5172,1.23,-1.4,-1.44,42.5,2022-03-04 10:15:53.393,1
249,5192,-0.77,-0.96,2.8,42.5,2022-03-04 10:15:53.493,1
250,5214,-0.82,-1.26,1.96,42.5,2022-03-04 10:15:53.593,1
251,5234,1.6,-0.68,1.21,42.5,2022-03-04 10:15:53.691,1
252,5254,1.63,-1.08,-1.07,42.5,2022-03-04 10:15:53.790,1
253,5276,1.32,-1.11,-1.61,42.5,2022-03-04 10:15:53.899,1
254,5296,-1.32,-0.29,2.13,42.5,2022-03-04 10:15:53.999,1
255,5314,0.71,-0.88,-2.44,42.5,2022-03-04 10:15:54.090,1
256,5340,-0.81,-0.59,-1.39,43.2,2022-03-04 10:15:54.197,1
257,5360,0.7,-0.53,1.07,43.2,2022-03-04 10:15:54.296,1
258,5380,0.82,-0.5,-1.48,43.2,2022-03-04 10:15:54.395,1
259,5400,-1.22,0.74,1.41,43.2,2022-03-04 10:15:54.495,1
260,5422,0.63,-0.42,-1.3,43.2,2022-03-04 10:15:54.596,1
261,5442,-1.01,-0.55,1.23,43.2,2022-03-04 10:15:54.693,1
262,5462,0.87,0.43,-0.83,43.2,2022-03-04 10:15:54.792,1
263,5482,-1.9,0.59,1.28,43.2,2022-03-04 10:15:54.892,1
264,5502,1.64,0.71,-2.0,43.2,2022-03-04 10:15:54.993,1
265,5522,0.61,0.78,-1.88,43.2,2022-03-04 10:15:55.091,1
266,5546,-1.03,-1.07,-2.94,45.0,2022-03-04 10:15:55.190,1
267,5568,2.2,-1.19,-3.97,45.0,2022-03-04 10:15:55.299,10
268,5588,1.41,-1.31,-2.13,45.0,2022-03-04 10:15:55.398,10
269,5608,-1.3,-0.79,-2.65,45.0,2022-03-04 10:15:55.497,10
270,5630,-1.86,-1.07,-1.07,45.0,2022-03-04 10:15:55.597,10
271,5650,-1.05,-1.17,1.71,45.0,2022-03-04 10:15:55.697,10
272,5670,-1.76,-0.79,-2.06,45.0,2022-03-04 10:15:55.796,10
273,5690,-1.01,-1.47,-1.8,45.0,2022-03-04 10:15:55.895,10
274,5710,-1.56,-0.85,1.51,45.0,2022-03-04 10:15:55.993,10
275,5730,1.25,-0.99,-1.47,45.0,2022-03-04 10:15:56.093,10
276,5754,0.91,-1.03,-1.49,45.7,2022-03-04 10:15:56.192,10
277,5774,1.26,-1.42,-1.36,45.7,2022-03-04 10:15:56.291,10
278,5794,0.45,-1.54,-3.32,45.7,2022-03-04 10:15:56.392,10
279,5816,-0.84,-0.96,-1.99,45.7,2022-03-04 10:15:56.499,10
280,5836,0.92,-1.13,0.66,45.7,2022-03-04 10:15:56.590,10
281,5858,-0.8,-1.28,1.21,45.7,2022-03-04 10:15:56.698,10
282,5878,-0.6,-1.23,-2.14,45.7,2022-03-04 10:15:56.797,10
283,5898,-1.2,-1.32,-1.76,45.7,2022-03-04 10:15:56.897,10
284,5918,0.91,-1.65,-1.03,45.7,2022-03-04 10:15:56.996,10
285,5938,0.4,-1.17,-0.56,45.7,2022-03-04 10:15:57.095,10
286,5962,0.32,-1.48,1.06,45.7,2022-03-04 10:15:57.195,10
287,5982,-1.2,-1.2,-0.79,45.7,2022-03-04 10:15:57.294,10
288,6002,-0.91,-1.07,-1.1,45.7,2022-03-04 10:15:57.393,10
289,6022,1.25,-1.46,1.34,45.7,2022-03-04 10:15:57.492,10
290,6044,0.96,-1.26,0.91,45.7,2022-03-04 10:15:57.592,10
291,6064,0.59,-1.22,-0.99,45.7,2022-03-04 10:15:57.693,10
292,6084,0.5,-1.54,1.05,45.7,2022-03-04 10:15:57.790,10
293,6106,0.84,-1.28,-0.75,45.7,2022-03-04 10:15:57.899,10
294,6126,0.83,-1.32,-0.71,45.7,2022-03-04 10:15:57.999,4
295,6146,0.53,-1.52,-1.09,45.7,2022-03-04 10:15:58.098,4
296,6168,0.9,-0.95,0.95,45.7,2022-03-04 10:15:58.199,4
297,6190,0.69,-1.12,-1.02,45.4,2022-03-04 10:15:58.298,4
298,6210,0.85,-1.47,-0.9,45.4,2022-03-04 10:15:58.395,4
299,6230,0.51,-1.28,-1.23,45.4,2022-03-04 10:15:58.495,4
300,6252,0.81,-1.26,0.8,45.4,2022-03-04 10:15:58.594,4
301,6272,1.27,-1.35,-0.83,45.4,2022-03-04 10:15:58.694,4
302,6292,1.32,-1.43,-1.32,45.4,2022-03-04 10:15:58.793,4
303,6312,1.4,-1.37,-1.08,45.4,2022-03-04 10:15:58.893,4
304,6332,0.59,-1.35,-1.17,45.4,2022-03-04 10:15:58.991,4
305,6352,1.24,-1.65,-0.81,45.4,2022-03-04 10:15:59.091,4
306,6378,0.94,-1.35,-0.97,45.4,2022-03-04 10:15:59.199,4
307,6398,1.09,-1.56,-0.88,44.3,2022-03-04 10:15:59.299,4
308,6418,1.01,-1.24,-0.79,44.3,2022-03-04 10:15:59.398,4
309,6438,0.94,-1.36,1.06,44.3,2022-03-04 10:15:59.498,4
310,6460,0.68,-1.4,-0.79,44.3,2022-03-04 10:15:59.597,4
311,6480,-1.18,-1.2,-1.04,44.3,2022-03-04 10:15:59.696,4
312,6500,0.79,-1.44,0.7,44.3,2022-03-04 10:15:59.795,4
313,6520,-0.76,-1.29,-0.73,44.3,2022-03-04 10:15:59.896,4
314,6540,0.84,-1.34,-1.02,44.3,2022-03-04 10:15:59.994,4
315,6560,0.99,-1.35,-0.87,44.3,2022-03-04 10:16:00.094,4
316,6580,0.61,-1.42,0.52,44.3,2022-03-04 10:16:00.196,4
317,6604,0.91,-1.68,-0.7,44.3,2022-03-04 10:16:00.292,4
318,6624,0.76,-1.67,-0.49,42.1,2022-03-04 10:16:00.391,4
319,6644,1.11,-1.55,-0.84,42.1,2022-03-04 10:16:00.491,4
320,6666,1.04,-1.4,-0.61,42.1,2022-03-04 10:16:00.589,4
321,6686,0.57,-1.4,-0.65,42.1,2022-03-04 10:16:00.689,4
322,6706,0.62,-1.46,-0.66,42.1,2022-03-04 10:16:00.788,4
323,6728,1.02,-1.53,0.69,42.1,2022-03-04 10:16:00.897,4
324,6748,0.66,-1.48,-0.47,42.1,2022-03-04 10:16:00.997,4
325,6768,1.03,-1.53,-0.92,42.1,2022-03-04 10:16:01.096,4
326,6788,1.64,-1.31,0.7,42.1,2022-03-04 10:16:01.195,4
327,6812,0.81,-1.56,-0.57,42.1,2022-03-04 10:16:01.294,4
328,6832,0.71,-1.35,-0.43,38.9,2022-03-04 10:16:01.394,4
329,6852,0.42,-1.2,-0.64,38.9,2022-03-04 10:16:01.495,4
330,6874,0.54,-1.24,-0.83,38.9,2022-03-04 10:16:01.592,4
331,6894,0.71,-1.47,-0.88,38.9,2022-03-04 10:16:01.692,4
332,6914,1.01,-1.29,-0.54,38.9,2022-03-04 10:16:01.791,4
333,6934,0.65,-1.22,0.72,38.9,2022-03-04 10:16:01.890,4
334,6954,0.42,-1.3,-0.82,38.9,2022-03-04 10:16:01.990,4
335,6976,0.58,-1.09,-0.92,38.9,2022-03-04 10:16:02.099,4
336,7000,0.55,-1.26,0.56,38.9,2022-03-04 10:16:02.198,4
337,7020,0.75,-1.17,-0.51,34.6,2022-03-04 10:16:02.297,4
338,7040,0.76,-1.2,0.46,34.6,2022-03-04 10:16:02.396,4
339,7060,0.64,-1.23,-0.69,34.6,2022-03-04 10:16:02.496,4
340,7082,1.11,-1.16,-0.4,34.6,2022-03-04 10:16:02.594,4
341,7102,0.97,-1.17,0.42,34.6,2022-03-04 10:16:02.695,4
342,7122,1.2,-1.3,0.34,34.6,2022-03-04 10:16:02.793,4
343,7142,1.02,-1.08,0.96,34.6,2022-03-04 10:16:02.893,4
344,7162,0.95,-1.05,-0.61,34.6,2022-03-04 10:16:02.992,4
345,7182,1.31,-1.0,-0.51,34.6,2022-03-04 10:16:03.091,4
346,7206,1.24,-1.0,-0.6,34.6,2022-03-04 10:16:03.190,4
347,7226,1.22,-0.96,-0.77,29.9,2022-03-04 10:16:03.290,4
348,7248,1.61,-0.96,0.85,29.9,2022-03-04 10:16:03.399,4
349,7266,1.7,-0.78,0.51,29.9,2022-03-04 10:16:03.488,4
350,7290,1.51,-0.65,-0.58,29.9,2022-03-04 10:16:03.599,4
351,7310,1.51,-0.71,0.72,29.9,2022-03-04 10:16:03.696,4
352,7330,1.26,-0.58,-0.57,29.9,2022-03-04 10:16:03.796,4
353,7350,1.26,-0.61,0.38,29.9,2022-03-04 10:16:03.896,4
354,7370,1.11,-0.55,-0.61,29.9,2022-03-04 10:16:03.994,4
355,7390,1.19,-0.43,-0.56,29.9,2022-03-04 10:16:04.094,4
356,7414,0.78,-0.43,-0.77,29.9,2022-03-04 10:16:04.193,7
357,7434,0.59,-0.4,-0.56,25.6,2022-03-04 10:16:04.292,7
358,7454,-0.2,-0.39,0.5,25.6,2022-03-04 10:16:04.391,7
359,7474,-0.54,-0.37,0.56,25.6,2022-03-04 10:16:04.492,7
360,7496,-0.27,-0.5,-0.7,25.6,2022-03-04 10:16:04.590,7
361,7516,-0.56,-0.39,-1.12,25.6,2022-03-04 10:16:04.689,7
362,7538,-0.76,-0.36,-0.46,25.6,2022-03-04 10:16:04.799,7
363,7558,-1.07,-0.43,0.55,25.6,2022-03-04 10:16:04.898,7
364,7578,-1.51,-0.55,-0.44,25.6,2022-03-04 10:16:04.998,7
365,7596,-1.83,-0.39,-0.65,25.6,2022-03-04 10:16:05.088,7
366,7622,-1.72,-0.41,-0.62,25.6,2022-03-04 10:16:05.195,7
367,7642,-1.42,-0.49,-0.56,22.3,2022-03-04 10:16:05.294,7
368,7662,-1.69,-0.25,0.48,22.3,2022-03-04 10:16:05.394,7
369,7682,-1.74,0.37,0.64,22.3,2022-03-04 10:16:05.493,7
370,7704,-2.17,0.24,-0.45,22.3,2022-03-04 10:16:05.592,7
371,7724,-2.52,0.31,-0.35,22.3,2022-03-04 10:16:05.691,7
372,7744,-2.57,0.31,0.53,22.3,2022-03-04 10:16:05.791,7
373,7764,-2.75,0.32,0.45,22.3,2022-03-04 10:16:05.890,7
374,7784,-2.87,-0.19,0.61,22.3,2022-03-04 10:16:05.989,7
375,7804,-2.8,-0.23,0.23,22.3,2022-03-04 10:16:06.089,7
376,7830,-2.69,-0.34,0.63,22.3,2022-03-04 10:16:06.199,7
377,7850,-2.34,0.31,0.59,21.6,2022-03-04 10:16:06.297,7
378,7870,-2.1,0.18,0.49,21.6,2022-03-04 10:16:06.399,7
379,7890,-2.72,-0.21,-0.41,21.6,2022-03-04 10:16:06.497,7
380,7912,-2.55,-0.22,0.54,21.6,2022-03-04 10:16:06.597,7
381,7932,-2.93,-0.3,0.84,21.6,2022-03-04 10:16:06.697,7
382,7952,-3.21,-0.5,0.38,21.6,2022-03-04 10:16:06.794,7
383,7972,-3.23,-0.49,-0.33,21.6,2022-03-04 10:16:06.893,7
384,7992,-3.51,-0.53,0.39,21.6,2022-03-04 10:16:06.993,7
385,8010,-3.27,-0.49,0.5,21.6,2022-03-04 10:16:07.083,7
386,8036,-3.51,-0.88,0.49,21.6,2022-03-04 10:16:07.190,7
387,8056,-3.54,-0.76,0.37,19.4,2022-03-04 10:16:07.290,7
388,8076,-3.36,-0.78,-0.52,19.4,2022-03-04 10:16:07.393,7
389,8098,-3.36,-0.9,-0.94,19.4,2022-03-04 10:16:07.498,7
390,8120,-3.42,-1.3,0.64,19.4,2022-03-04 10:16:07.598,7
391,8140,-2.9,-0.85,0.76,19.4,2022-03-04 10:16:07.698,7
392,8158,-3.09,-1.12,0.97,19.4,2022-03-04 10:16:07.786,7
393,8180,-2.78,-0.99,-0.59,19.4,2022-03-04 10:16:07.898,7
394,8200,-2.71,-0.96,-0.41,19.4,2022-03-04 10:16:07.996,7
395,8220,-2.72,-0.97,0.97,19.4,2022-03-04 10:16:08.097,7
396,8244,-2.9,-1.01,0.47,19.4,2022-03-04 10:16:08.194,7
397,8264,-2.7,-1.07,-0.55,19.4,2022-03-04 10:16:08.292,7
398,8284,-3.27,-1.12,-0.52,19.4,2022-03-04 10:16:08.392,7
399,8304,-2.62,-0.9,0.33,19.4,2022-03-04 10:16:08.491,7
400,8326,-2.58,-1.05,0.91,19.4,2022-03-04 10:16:08.591,7
401,8348,-2.44,-1.09,0.6,19.4,2022-03-04 10:16:08.699,7
402,8368,-2.75,-1.07,0.87,19.4,2022-03-04 10:16:08.798,7
403,8386,-2.43,-1.2,-0.59,19.4,2022-03-04 10:16:08.888,7
404,8408,-2.48,-1.23,-0.46,19.4,2022-03-04 10:16:08.998,7
405,8426,-2.42,-1.03,-0.4,19.4,2022-03-04 10:16:09.090,7
406,8449,-2.63,-1.39,-0.5,19.4,2022-03-04 10:16:09.198,7
407,8470,-2.73,-1.3,-1.04,19.4,2022-03-04 10:16:09.286,7
408,8490,-2.6,-1.59,0.81,16.9,2022-03-04 10:16:09.384,7
409,8510,-2.88,-1.48,0.53,16.9,2022-03-04 10:16:09.485,7
410,8534,-2.43,-1.36,0.83,16.9,2022-03-04 10:16:09.595,7
411,8554,-3.44,-1.46,0.91,16.9,2022-03-04 10:16:09.692,7
412,8574,-2.96,-1.66,-0.67,16.9,2022-03-04 10:16:09.792,7
413,8594,-2.87,-1.75,-0.69,16.9,2022-03-04 10:16:09.891,7
414,8614,-2.73,-1.83,-0.94,16.9,2022-03-04 10:16:09.990,7
415,8634,-2.93,-1.8,0.55,16.9,2022-03-04 10:16:10.090,7
416,8660,-3.17,-1.89,-0.64,16.9,2022-03-04 10:16:10.199,7
417,8680,-3.26,-1.95,0.87,16.6,2022-03-04 10:16:10.298,7
418,8700,-3.36,-1.86,0.67,16.6,2022-03-04 10:16:10.397,7
419,8720,-3.0,-2.17,-0.91,16.6,2022-03-04 10:16:10.498,7
420,8742,-3.2,-2.09,0.41,16.6,2022-03-04 10:16:10.596,7
421,8762,-3.27,-2.27,1.31,16.6,2022-03-04 10:16:10.696,7
422,8782,-3.45,-2.2,-0.58,16.6,2022-03-04 10:16:10.795,7
423,8802,-3.43,-2.09,-1.23,16.6,2022-03-04 10:16:10.895,7
424,8822,-3.61,-2.2,0.6,16.6,2022-03-04 10:16:10.994,7
425,8842,-3.53,-2.08,0.53,16.6,2022-03-04 10:16:11.097,7
426,8866,-3.2,-1.83,0.84,18.0,2022-03-04 10:16:11.193,7
427,8886,-3.02,-1.76,1.91,18.0,2022-03-04 10:16:11.290,7
428,8906,-3.29,-2.19,1.41,18.0,2022-03-04 10:16:11.389,7
429,8928,-3.16,-1.7,1.15,18.0,2022-03-04 10:16:11.499,7
430,8950,-2.98,-1.64,1.04,18.0,2022-03-04 10:16:11.598,7
431,8968,-2.95,-1.71,0.66,18.0,2022-03-04 10:16:11.687,7
432,8990,-2.51,-1.53,1.12,18.0,2022-03-04 10:16:11.797,7
433,9010,-1.72,-1.53,0.78,18.0,2022-03-04 10:16:11.899,7
434,9030,-1.94,-1.57,1.34,18.0,2022-03-04 10:16:11.997,7
435,9050,-1.97,-1.43,0.96,18.0,2022-03-04 10:16:12.094,7
436,9074,-1.93,-1.54,1.4,18.0,2022-03-04 10:16:12.194,7
437,9094,-1.37,-1.11,1.31,16.9,2022-03-04 10:16:12.294,7
438,9114,-1.46,-1.09,0.76,16.9,2022-03-04 10:16:12.393,7
439,9134,-0.46,-0.86,0.99,16.9,2022-03-04 10:16:12.493,7
440,9156,0.51,-1.07,0.91,16.9,2022-03-04 10:16:12.593,7
441,9176,0.64,-0.91,-0.83,16.9,2022-03-04 10:16:12.690,7
442,9198,-0.6,-1.04,-0.52,16.9,2022-03-04 10:16:12.799,7
443,9218,-0.47,-1.03,-0.84,16.9,2022-03-04 10:16:12.898,7
444,9238,0.72,-0.87,0.61,16.9,2022-03-04 10:16:12.997,7
445,9258,0.57,-0.95,-0.66,16.9,2022-03-04 10:16:13.099,7
446,9282,0.61,-0.81,-0.54,17.3,2022-03-04 10:16:13.196,7
447,9302,0.66,-0.92,0.5,17.3,2022-03-04 10:16:13.295,7
448,9322,0.77,-1.06,0.35,17.3,2022-03-04 10:16:13.395,7
449,9342,1.0,-0.92,-0.25,17.3,2022-03-04 10:16:13.494,7
450,9364,1.12,-0.92,-0.26,17.3,2022-03-04 10:16:13.593,7
451,9384,1.49,-0.79,-0.51,17.3,2022-03-04 10:16:13.692,7
452,9404,1.09,-0.92,0.67,17.3,2022-03-04 10:16:13.795,7
453,9424,0.92,-0.75,0.92,17.3,2022-03-04 10:16:13.892,7
454,9444,0.91,-0.75,0.65,17.3,2022-03-04 10:16:13.992,7
455,9464,0.98,-0.64,-0.55,17.3,2022-03-04 10:16:14.090,7
456,9486,1.46,-0.65,-0.55,17.3,2022-03-04 10:16:14.198,7
457,9510,1.68,-0.72,-0.82,20.5,2022-03-04 10:16:14.298,7
458,9530,1.39,-0.75,0.6,20.5,2022-03-04 10:16:14.397,7
459,9550,1.13,-0.64,0.45,20.5,2022-03-04 10:16:14.498,7
460,9572,1.17,-0.74,0.31,20.5,2022-03-04 10:16:14.596,1
461,9592,1.28,-0.82,-1.39,20.5,2022-03-04 10:16:14.695,1
462,9612,1.81,-0.78,0.93,20.5,2022-03-04 10:16:14.795,1
463,9632,1.6,-0.8,-0.52,20.5,2022-03-04 10:16:14.894,1
464,9652,1.1,-0.56,-0.98,20.5,2022-03-04 10:16:14.993,1
465,9672,1.36,-1.13,-1.35,20.5,2022-03-04 10:16:15.095,1
466,9692,1.36,-1.06,-1.58,20.5,2022-03-04 10:16:15.192,1
467,9716,1.65,0.98,-1.95,22.7,2022-03-04 10:16:15.291,1
468,9736,1.23,-0.75,1.1,22.7,2022-03-04 10:16:15.392,1
469,9758,1.27,-0.66,-0.58,22.7,2022-03-04 10:16:15.499,1
470,9780,0.99,-0.62,0.5,22.7,2022-03-04 10:16:15.599,1
471,9800,1.21,-0.77,-0.67,22.7,2022-03-04 10:16:15.698,1
472,9820,1.18,-0.37,0.74,22.7,2022-03-04 10:16:15.797,1
473,9840,1.27,-0.54,-0.81,22.7,2022-03-04 10:16:15.896,1
474,9860,1.1,-0.38,-0.81,22.7,2022-03-04 10:16:15.995,1
475,9880,0.72,-0.46,-0.52,22.7,2022-03-04 10:16:16.094,1
476,9904,0.96,-0.52,0.51,23.8,2022-03-04 10:16:16.194,1
477,9924,0.96,-0.4,-0.79,23.8,2022-03-04 10:16:16.293,1
478,9944,1.07,-0.37,-0.48,23.8,2022-03-04 10:16:16.392,1
479,9964,1.2,-0.25,-0.97,23.8,2022-03-04 10:16:16.492,1
480,9986,0.89,0.49,1.54,23.8,2022-03-04 10:16:16.592,1
481,10006,0.96,0.34,-1.0,23.8,2022-03-04 10:16:16.691,1
482,10028,1.12,0.49,-0.61,23.8,2022-03-04 10:16:16.799,1
483,10048,0.81,0.32,-0.64,23.8,2022-03-04 10:16:16.898,1
484,10068,1.03,0.52,-0.68,23.8,2022-03-04 10:16:16.999,1
485,10088,0.82,0.36,-1.17,23.8,2022-03-04 10:16:17.099,1
486,10112,1.11,0.34,-1.1,26.3,2022-03-04 10:16:17.196,1
487,10132,1.01,0.38,-1.13,26.3,2022-03-04 10:16:17.296,1
488,10152,1.02,0.44,-1.48,26.3,2022-03-04 10:16:17.395,1
489,10172,0.81,-0.41,1.08,26.3,2022-03-04 10:16:17.494,1
490,10194,1.14,0.27,0.81,26.3,2022-03-04 10:16:17.596,1
491,10214,0.91,-0.39,-0.86,26.3,2022-03-04 10:16:17.695,1
492,10234,1.23,0.42,-1.34,26.3,2022-03-04 10:16:17.792,1
493,10254,1.25,0.23,-0.63,26.3,2022-03-04 10:16:17.892,1
494,10274,1.17,-0.52,-0.75,26.3,2022-03-04 10:16:17.992,1
495,10294,0.63,0.4,0.86,26.3,2022-03-04 10:16:18.093,1
496,10320,1.18,0.55,-0.88,28.4,2022-03-04 10:16:18.198,1
497,10340,0.96,0.4,0.76,28.4,2022-03-04 10:16:18.298,1
498,10360,0.99,0.68,-1.14,28.4,2022-03-04 10:16:18.397,1
499,10380,1.0,0.68,-1.08,28.4,2022-03-04 10:16:18.497,1
500,10402,1.25,0.32,-0.56,28.4,2022-03-04 10:16:18.596,1
501,10422,-0.57,0.7,-0.98,28.4,2022-03-04 10:16:18.695,1
502,10442,-0.46,0.66,-0.99,28.4,2022-03-04 10:16:18.794,1
503,10462,0.64,0.45,0.97,28.4,2022-03-04 10:16:18.894,1
504,10482,-1.01,0.25,1.27,28.4,2022-03-04 10:16:18.993,1
505,10502,0.79,0.32,-0.87,28.4,2022-03-04 10:16:19.093,1
506,10522,0.55,0.27,0.94,28.4,2022-03-04 10:16:19.192,1
507,10546,0.49,0.62,-1.09,31.7,2022-03-04 10:16:19.291,1
508,10568,-0.8,-0.28,1.05,31.7,2022-03-04 10:16:19.399,1
509,10586,0.98,0.39,-1.13,31.7,2022-03-04 10:16:19.491,1
510,10610,-0.53,0.43,-1.39,31.7,2022-03-04 10:16:19.598,1
511,10630,-0.94,0.46,1.16,31.7,2022-03-04 10:16:19.698,1
512,10650,0.89,-1.61,-1.11,31.7,2022-03-04 10:16:19.797,1
513,10670,0.73,-1.1,-0.61,31.7,2022-03-04 10:16:19.896,1
514,10690,0.62,-1.03,0.49,31.7,2022-03-04 10:16:19.995,1
515,10706,0.77,-0.96,0.62,31.7,2022-03-04 10:16:20.091,1
516,10734,0.86,-1.17,-0.71,33.1,2022-03-04 10:16:20.194,1
517,10754,0.83,-1.18,-0.61,33.1,2022-03-04 10:16:20.294,1
518,10774,1.13,-1.22,0.78,33.1,2022-03-04 10:16:20.392,1
519,10794,1.16,-1.09,-0.99,33.1,2022-03-04 10:16:20.492,1
520,10816,0.84,-1.01,-1.26,33.1,2022-03-04 10:16:20.591,1
521,10836,0.73,0.43,-1.17,33.1,2022-03-04 10:16:20.692,1
522,10858,0.81,0.32,-0.9,33.1,2022-03-04 10:16:20.799,1
523,10878,0.22,0.49,-0.86,33.1,2022-03-04 10:16:20.898,1
524,10898,-0.57,0.49,0.87,33.1,2022-03-04 10:16:20.998,1
525,10918,0.54,0.36,-1.04,33.1,2022-03-04 10:16:21.098,1
526,10942,0.65,-0.43,-0.64,34.2,2022-03-04 10:16:21.199,1
527,10962,0.92,0.44,0.69,34.2,2022-03-04 10:16:21.296,1
528,10982,0.53,0.39,-0.8,34.2,2022-03-04 10:16:21.395,1
529,11002,0.68,0.36,0.86,34.2,2022-03-04 10:16:21.494,1
530,11024,1.23,0.56,0.63,34.2,2022-03-04 10:16:21.594,1
531,11044,0.45,0.64,-1.34,34.2,2022-03-04 10:16:21.693,1
532,11064,0.71,0.59,-1.04,34.2,2022-03-04 10:16:21.792,1
533,11084,0.6,0.64,0.89,34.2,2022-03-04 10:16:21.891,1
534,11104,-0.55,0.67,-0.69,34.2,2022-03-04 10:16:21.991,1
535,11124,0.85,0.67,1.26,34.2,2022-03-04 10:16:22.090,1
536,11150,0.67,0.69,-0.76,37.1,2022-03-04 10:16:22.199,1
537,11168,0.76,0.53,-1.18,37.1,2022-03-04 10:16:22.289,1
538,11190,0.82,0.72,-1.35,37.1,2022-03-04 10:16:22.398,1
539,11210,0.81,0.82,-1.4,37.1,2022-03-04 10:16:22.497,1
540,11232,0.94,0.85,-0.92,37.1,2022-03-04 10:16:22.599,1
541,11252,0.81,0.86,1.84,37.1,2022-03-04 10:16:22.695,1
542,11272,0.95,0.71,1.83,37.1,2022-03-04 10:16:22.795,1
543,11292,-0.98,0.69,-2.48,37.1,2022-03-04 10:16:22.894,1
544,11312,0.72,-0.77,0.59,37.1,2022-03-04 10:16:22.993,1
545,11332,-1.18,-0.44,1.14,37.1,2022-03-04 10:16:23.092,1
546,11356,1.1,-0.56,-0.52,40.0,2022-03-04 10:16:23.195,1
547,11376,0.83,-0.44,-0.71,40.0,2022-03-04 10:16:23.291,1
548,11396,0.76,-0.53,0.41,40.0,2022-03-04 10:16:23.390,1
549,11416,1.22,0.38,0.62,40.0,2022-03-04 10:16:23.490,1
550,11438,0.91,-0.47,-0.78,40.0,2022-03-04 10:16:23.589,1
551,11460,1.07,-0.38,-0.81,40.0,2022-03-04 10:16:23.698,1
552,11480,1.21,-0.45,-0.95,40.0,2022-03-04 10:16:23.797,1
553,11500,0.87,-0.67,-1.32,40.0,2022-03-04 10:16:23.896,1
554,11520,-0.81,-0.3,0.77,40.0,2022-03-04 10:16:23.996,1
555,11540,1.25,-0.45,-0.99,40.0,2022-03-04 10:16:24.095,1
556,11564,1.51,-0.36,1.17,41.4,2022-03-04 10:16:24.194,1
557,11584,0.95,-0.65,-1.02,41.4,2022-03-04 10:16:24.294,1
558,11604,0.94,-0.53,-0.86,41.4,2022-03-04 10:16:24.393,1
559,11624,0.98,-0.42,-0.96,41.4,2022-03-04 10:16:24.492,1
560,11646,1.03,-0.49,1.33,41.4,2022-03-04 10:16:24.591,1
561,11666,1.17,-0.84,-0.67,41.4,2022-03-04 10:16:24.691,1
562,11688,-0.66,-0.38,-0.85,41.4,2022-03-04 10:16:24.799,1
563,11708,0.83,-0.82,0.65,41.4,2022-03-04 10:16:24.899,1
564,11728,1.04,-0.67,1.1,41.4,2022-03-04 10:16:24.999,1
565,11748,0.73,-0.56,1.03,41.4,2022-03-04 10:16:25.098,1
566,11772,0.77,-0.7,0.82,42.5,2022-03-04 10:16:25.197,1
567,11792,-0.93,-0.77,-1.38,42.5,2022-03-04 10:16:25.296,1
568,11812,0.9,-0.61,-1.26,42.5,2022-03-04 10:16:25.395,1
569,11832,-1.22,-0.68,-0.85,42.5,2022-03-04 10:16:25.495,1
570,11854,0.97,-0.73,1.22,42.5,2022-03-04 10:16:25.594,1
571,11874,0.8,-0.63,1.18,42.5,2022-03-04 10:16:25.694,1
572,11894,0.83,-0.67,-1.05,42.5,2022-03-04 10:16:25.792,1
573,11914,0.89,-0.53,0.77,42.5,2022-03-04 10:16:25.891,1
574,11934,0.9,-0.73,-1.01,42.5,2022-03-04 10:16:25.991,1
575,11954,0.65,-0.73,-1.2,42.5,2022-03-04 10:16:26.091,1
576,11976,0.9,-0.73,-1.43,43.6,2022-03-04 10:16:26.193,1
577,12000,0.96,-0.7,-1.04,43.6,2022-03-04 10:16:26.299,1
578,12020,1.21,-0.62,-0.92,43.6,2022-03-04 10:16:26.398,1
579,12040,1.32,-0.57,-1.35,43.6,2022-03-04 10:16:26.497,1
580,12062,0.95,-0.41,1.35,43.6,2022-03-04 10:16:26.597,1
581,12082,1.04,-0.42,-1.46,43.6,2022-03-04 10:16:26.696,1
582,12102,-1.13,0.55,1.34,43.6,2022-03-04 10:16:26.795,1
583,12122,0.92,0.41,1.19,43.6,2022-03-04 10:16:26.894,1
584,12142,-1.0,-0.38,-0.66,43.6,2022-03-04 10:16:26.994,1
585,12162,0.99,0.59,1.55,43.6,2022-03-04 10:16:27.097,1
586,12186,0.85,0.6,-1.43,44.6,2022-03-04 10:16:27.193,1
587,12206,-1.26,0.59,-1.76,44.6,2022-03-04 10:16:27.291,1
588,12226,0.31,-0.54,-0.76,44.6,2022-03-04 10:16:27.391,1
589,12246,0.82,-0.76,-0.59,44.6,2022-03-04 10:16:27.490,1
590,12268,0.85,-0.47,0.97,44.6,2022-03-04 10:16:27.589,1
591,12288,0.68,-0.66,0.65,44.6,2022-03-04 10:16:27.690,1
592,12310,0.75,-1.14,-1.19,44.6,2022-03-04 10:16:27.798,10
593,12330,0.69,-1.17,-1.09,44.6,2022-03-04 10:16:27.897,10
594,12350,0.71,-1.27,0.7,44.6,2022-03-04 10:16:27.996,10
595,12368,0.48,-1.18,-0.56,44.6,2022-03-04 10:16:28.087,10
596,12394,1.0,-1.05,0.71,45.4,2022-03-04 10:16:28.196,10
597,12414,0.57,-1.1,-0.7,45.4,2022-03-04 10:16:28.294,10
598,12434,0.66,-1.06,-0.37,45.4,2022-03-04 10:16:28.393,10
599,12454,0.72,-1.19,0.78,45.4,2022-03-04 10:16:28.492,10
600,12476,0.85,-1.24,-0.55,45.4,2022-03-04 10:16:28.592,10
601,12496,0.73,-1.08,-0.56,45.4,2022-03-04 10:16:28.691,10
602,12516,0.58,-0.87,-0.54,45.4,2022-03-04 10:16:28.792,10
603,12536,0.51,-1.06,-0.89,45.4,2022-03-04 10:16:28.889,10
604,12556,0.63,-1.14,-1.03,45.4,2022-03-04 10:16:28.989,10
605,12578,0.67,-1.42,0.83,45.4,2022-03-04 10:16:29.099,10
606,12602,0.73,-0.88,-0.49,45.4,2022-03-04 10:16:29.198,10
607,12622,0.37,-0.95,0.78,44.3,2022-03-04 10:16:29.299,10
608,12640,0.4,-1.02,0.61,44.3,2022-03-04 10:16:29.387,10
609,12662,0.91,-0.79,-0.63,44.3,2022-03-04 10:16:29.495,10
610,12684,0.84,-1.1,-0.64,44.3,2022-03-04 10:16:29.594,10
611,12704,-0.46,-0.92,-0.89,44.3,2022-03-04 10:16:29.694,10
612,12724,0.59,-0.89,-0.72,44.3,2022-03-04 10:16:29.793,10
613,12744,-1.08,-0.71,-0.47,44.3,2022-03-04 10:16:29.893,10
614,12764,0.89,-0.62,-1.26,44.3,2022-03-04 10:16:29.991,10
615,12784,0.43,-0.62,0.61,44.3,2022-03-04 10:16:30.091,10
616,12808,0.91,-0.58,0.85,44.3,2022-03-04 10:16:30.190,10
617,12830,-1.41,-0.71,-0.79,44.3,2022-03-04 10:16:30.299,10
618,12848,0.78,-0.71,-0.8,44.3,2022-03-04 10:16:30.389,10
619,12870,0.47,-0.5,-0.97,44.3,2022-03-04 10:16:30.498,10
620,12892,0.57,-0.5,0.62,44.3,2022-03-04 10:16:30.598,10
621,12912,0.64,-0.39,0.46,44.3,2022-03-04 10:16:30.698,10
622,12932,-0.64,-0.45,-0.83,44.3,2022-03-04 10:16:30.795,10
623,12952,0.92,-0.59,-0.61,44.3,2022-03-04 10:16:30.895,10
624,12972,1.0,-0.59,0.59,44.3,2022-03-04 10:16:30.994,10
625,12992,0.8,-0.58,1.09,44.3,2022-03-04 10:16:31.094,10
626,13016,-0.45,-0.76,-0.81,45.0,2022-03-04 10:16:31.193,10
627,13036,0.35,-0.96,-0.82,45.0,2022-03-04 10:16:31.292,10
628,13056,0.45,-1.03,0.57,45.0,2022-03-04 10:16:31.391,10
629,13076,0.51,-0.78,-0.77,45.0,2022-03-04 10:16:31.490,10
630,13098,0.56,-0.84,-1.01,45.0,2022-03-04 10:16:31.589,10
631,13120,0.71,-0.73,-0.66,45.0,2022-03-04 10:16:31.699,10
632,13140,0.46,-0.84,-0.92,45.0,2022-03-04 10:16:31.798,10
633,13160,0.84,-0.76,0.63,45.0,2022-03-04 10:16:31.898,10
634,13180,0.33,-0.86,-0.78,45.0,2022-03-04 10:16:31.997,10
635,13200,0.45,-1.17,-0.78,45.0,2022-03-04 10:16:32.098,10
636,13224,1.16,-1.51,0.3,45.0,2022-03-04 10:16:32.197,4
637,13244,0.82,-1.23,0.44,43.9,2022-03-04 10:16:32.294,4
638,13264,0.98,-1.21,-0.66,43.9,2022-03-04 10:16:32.393,4
639,13284,0.52,-1.46,-1.03,43.9,2022-03-04 10:16:32.493,4
640,13306,1.19,-1.65,0.86,43.9,2022-03-04 10:16:32.592,4
641,13326,0.74,-1.54,-0.64,43.9,2022-03-04 10:16:32.691,4
642,13346,-1.11,-1.78,-1.58,43.9,2022-03-04 10:16:32.791,4
643,13368,0.78,-1.69,-1.64,43.9,2022-03-04 10:16:32.899,4
644,13386,0.88,-1.66,-0.82,43.9,2022-03-04 10:16:32.989,4
645,13406,0.72,-1.73,1.05,43.9,2022-03-04 10:16:33.088,4
646,13426,1.26,-1.66,1.31,43.9,2022-03-04 10:16:33.192,4
647,13452,1.53,-1.53,-1.74,43.9,2022-03-04 10:16:33.298,4
648,13472,1.85,-1.92,1.52,40.7,2022-03-04 10:16:33.397,4
649,13492,0.8,-1.76,-1.53,40.7,2022-03-04 10:16:33.499,4
650,13514,0.86,-1.24,-1.27,40.7,2022-03-04 10:16:33.596,4
651,13534,0.51,-1.22,-0.81,40.7,2022-03-04 10:16:33.694,4
652,13554,0.56,-1.14,-0.74,40.7,2022-03-04 10:16:33.796,4
653,13574,0.93,-0.93,0.95,40.7,2022-03-04 10:16:33.892,4
654,13594,0.69,-0.87,-1.03,40.7,2022-03-04 10:16:33.992,4
655,13614,-0.64,-1.2,-1.19,40.7,2022-03-04 10:16:34.091,4
656,13636,1.43,-1.05,0.95,40.7,2022-03-04 10:16:34.193,4
657,13658,0.75,-1.12,-0.91,38.2,2022-03-04 10:16:34.289,4
658,13678,0.51,-1.16,-1.4,38.2,2022-03-04 10:16:34.389,4
659,13700,0.7,-0.87,-0.53,38.2,2022-03-04 10:16:34.498,4
660,13722,-0.82,-0.93,-0.47,38.2,2022-03-04 10:16:34.598,4
661,13742,0.94,-1.25,0.92,38.2,2022-03-04 10:16:34.697,4
662,13762,1.08,-1.12,-0.91,38.2,2022-03-04 10:16:34.797,4
663,13782,0.51,-1.03,-1.31,38.2,2022-03-04 10:16:34.895,4
664,13802,0.38,-1.07,0.34,38.2,2022-03-04 10:16:34.997,4
665,13822,1.1,-1.1,-0.4,38.2,2022-03-04 10:16:35.095,4
666,13846,0.75,-1.02,0.73,38.2,2022-03-04 10:16:35.193,4
667,13866,0.33,-0.99,-1.0,36.0,2022-03-04 10:16:35.292,4
668,13886,0.75,-1.25,-0.91,36.0,2022-03-04 10:16:35.391,4
669,13906,0.62,-1.23,0.37,36.0,2022-03-04 10:16:35.491,4
670,13930,0.89,-1.09,-0.81,36.0,2022-03-04 10:16:35.599,4
671,13950,0.41,-1.02,-0.95,36.0,2022-03-04 10:16:35.699,4
672,13970,0.66,-1.07,-0.93,36.0,2022-03-04 10:16:35.798,4
673,13990,0.68,-1.1,-0.61,36.0,2022-03-04 10:16:35.898,4
674,14010,0.54,-1.4,-0.44,36.0,2022-03-04 10:16:35.998,4
675,14030,0.65,-1.74,-0.71,36.0,2022-03-04 10:16:36.099,4
676,14054,0.47,-1.65,-0.79,36.0,2022-03-04 10:16:36.195,4
677,14074,0.45,-1.65,0.6,32.4,2022-03-04 10:16:36.296,4
678,14094,0.55,-1.6,0.95,32.4,2022-03-04 10:16:36.394,4
679,14114,0.61,-1.26,-1.43,32.4,2022-03-04 10:16:36.496,4
680,14136,0.69,-1.4,-0.57,32.4,2022-03-04 10:16:36.595,4
681,14156,0.47,-1.61,0.81,32.4,2022-03-04 10:16:36.692,4
682,14176,0.56,-1.46,1.03,32.4,2022-03-04 10:16:36.791,4
683,14196,0.31,-1.28,-1.04,32.4,2022-03-04 10:16:36.891,4
684,14218,0.55,-1.34,-1.22,32.4,2022-03-04 10:16:36.999,4
685,14238,0.46,-1.36,0.72,32.4,2022-03-04 10:16:37.099,4
686,14262,0.42,-1.27,0.87,32.4,2022-03-04 10:16:37.198,4
687,14282,0.74,-1.24,-0.95,27.4,2022-03-04 10:16:37.297,4
688,14302,0.25,-1.34,-1.41,27.4,2022-03-04 10:16:37.396,4
689,14322,0.3,-1.36,-0.7,27.4,2022-03-04 10:16:37.496,4
690,14344,0.44,-1.31,0.51,27.4,2022-03-04 10:16:37.596,4
691,14364,0.5,-1.27,-0.47,27.4,2022-03-04 10:16:37.695,4
692,14384,0.56,-1.31,0.73,27.4,2022-03-04 10:16:37.793,4
693,14404,0.41,-1.14,-0.99,27.4,2022-03-04 10:16:37.893,4
694,14424,0.27,-1.21,-0.94,27.4,2022-03-04 10:16:37.995,4
695,14444,0.4,-1.23,0.43,27.4,2022-03-04 10:16:38.093,4
696,14468,0.56,-1.21,0.49,27.4,2022-03-04 10:16:38.194,4
697,14490,0.48,-1.2,-0.43,22.3,2022-03-04 10:16:38.299,4
698,14510,0.34,-1.3,-0.38,22.3,2022-03-04 10:16:38.399,4
699,14530,0.37,-1.22,-0.84,22.3,2022-03-04 10:16:38.498,4
700,14552,-0.42,-1.17,-0.95,22.3,2022-03-04 10:16:38.597,4
701,14572,0.35,-1.13,0.5,22.3,2022-03-04 10:16:38.697,4
702,14592,0.33,-1.16,0.43,22.3,2022-03-04 10:16:38.798,4
703,14612,0.44,-1.2,0.65,22.3,2022-03-04 10:16:38.895,4
704,14632,0.45,-1.25,-0.35,22.3,2022-03-04 10:16:38.995,4
705,14652,-0.32,-1.07,-0.64,22.3,2022-03-04 10:16:39.094,4
706,14674,-0.17,-0.96,-0.64,22.3,2022-03-04 10:16:39.199,4
707,14696,0.31,-1.08,0.44,16.9,2022-03-04 10:16:39.293,4
708,14716,0.36,-1.07,0.24,16.9,2022-03-04 10:16:39.393,4
709,14736,0.38,-1.02,0.29,16.9,2022-03-04 10:16:39.492,4
710,14758,0.53,-0.95,-0.4,16.9,2022-03-04 10:16:39.590,4
711,14780,0.39,-0.89,0.31,16.9,2022-03-04 10:16:39.699,4
712,14800,-0.19,-0.75,-0.43,16.9,2022-03-04 10:16:39.799,4
713,14820,-0.22,-0.7,-0.48,16.9,2022-03-04 10:16:39.898,4
714,14840,0.27,-0.6,0.31,16.9,2022-03-04 10:16:39.997,4
715,14860,0.37,-0.54,-0.44,16.9,2022-03-04 10:16:40.097,4
716,14880,-0.51,-0.54,-0.67,16.9,2022-03-04 10:16:40.195,4
717,14904,-0.39,-0.54,-0.25,16.9,2022-03-04 10:16:40.296,4
718,14924,-0.29,-0.33,-0.43,11.5,2022-03-04 10:16:40.394,4
719,14944,0.3,-0.4,-0.54,11.5,2022-03-04 10:16:40.493,4
720,14966,-0.47,-0.38,-0.31,11.5,2022-03-04 10:16:40.595,4
721,14986,0.28,-0.43,-0.26,11.5,2022-03-04 10:16:40.692,4
722,15006,-0.34,-0.39,-0.26,11.5,2022-03-04 10:16:40.792,4
723,15026,-0.26,-0.42,-0.38,11.5,2022-03-04 10:16:40.891,4
724,15046,-0.22,-0.4,-0.42,11.5,2022-03-04 10:16:40.990,4
725,15068,0.34,-0.41,-0.24,11.5,2022-03-04 10:16:41.099,4
726,15092,-0.3,-0.31,-0.3,11.5,2022-03-04 10:16:41.198,4
727,15110,-0.33,-0.27,0.27,7.2,2022-03-04 10:16:41.290,4
728,15132,-0.28,-0.27,-0.27,7.2,2022-03-04 10:16:41.398,4
729,15152,-0.22,-0.1,-0.36,7.2,2022-03-04 10:16:41.496,4
730,15174,-0.23,-0.15,-0.22,7.2,2022-03-04 10:16:41.595,4
731,15194,-0.15,-0.13,-0.13,7.2,2022-03-04 10:16:41.695,4
732,15214,0.19,-0.13,-0.22,7.2,2022-03-04 10:16:41.795,4
733,15234,-0.12,-0.11,-0.26,7.2,2022-03-04 10:16:41.894,4
734,15254,-0.23,0.13,-0.2,7.2,2022-03-04 10:16:41.992,4
735,15274,-0.18,0.21,-0.27,7.2,2022-03-04 10:16:42.093,4
736,15298,-0.23,0.21,-0.28,7.2,2022-03-04 10:16:42.191,4
737,15318,-0.18,0.24,-0.13,3.2,2022-03-04 10:16:42.291,4
738,15340,-0.23,0.3,-0.21,3.2,2022-03-04 10:16:42.399,4
739,15358,-0.17,0.28,-0.26,3.2,2022-03-04 10:16:42.490,4
740,15382,-0.3,0.33,-0.2,3.2,2022-03-04 10:16:42.598,4
741,15402,0.18,0.25,-0.18,3.2,2022-03-04 10:16:42.697,4
742,15422,-0.27,0.62,-0.3,3.2,2022-03-04 10:16:42.796,4
743,15442,-0.28,1.01,0.41,3.2,2022-03-04 10:16:42.895,4
744,15462,-0.29,1.21,-0.33,3.2,2022-03-04 10:16:42.995,4
745,15480,-0.29,1.31,-0.34,3.2,2022-03-04 10:16:43.088,4
746,15506,-0.29,1.26,-0.3,3.2,2022-03-04 10:16:43.194,4
747,15526,-0.33,1.15,-0.27,0.4,2022-03-04 10:16:43.293,4
748,15546,-0.22,0.91,-0.22,0.4,2022-03-04 10:16:43.393,4
749,15566,-0.28,0.9,-0.2,0.4,2022-03-04 10:16:43.492,4
750,15588,-0.2,0.96,-0.29,0.4,2022-03-04 10:16:43.591,4
751,15608,-0.31,1.04,-0.23,0.4,2022-03-04 10:16:43.691,4
752,15630,-0.29,1.02,-0.22,0.4,2022-03-04 10:16:43.799,4
753,15650,-0.24,0.94,-0.23,0.4,2022-03-04 10:16:43.898,0
754,15670,-0.23,0.95,-0.28,0.4,2022-03-04 10:16:43.997,0
755,15690,-0.3,0.92,-0.23,0.4,2022-03-04 10:16:44.097,0
756,15710,-0.24,0.98,-0.25,0.4,2022-03-04 10:16:44.196,0
757,15734,-0.25,0.88,-0.28,0.0,2022-03-04 10:16:44.295,0
758,15754,-0.18,0.87,-0.23,0.0,2022-03-04 10:16:44.397,0
759,15774,-0.23,0.91,-0.26,0.0,2022-03-04 10:16:44.494,0
760,15796,-0.27,0.9,-0.22,0.0,2022-03-04 10:16:44.593,0
761,15816,-0.25,0.84,-0.26,0.0,2022-03-04 10:16:44.692,0
762,15836,-0.24,0.87,-0.26,0.0,2022-03-04 10:16:44.791,0
763,15856,-0.25,0.76,-0.29,0.0,2022-03-04 10:16:44.891,0
764,15876,-0.19,0.81,-0.27,0.0,2022-03-04 10:16:44.992,0
765,15896,-0.27,0.83,-0.21,0.0,2022-03-04 10:16:45.090,0
766,15922,-0.23,0.77,-0.22,0.0,2022-03-04 10:16:45.198,0
767,15942,-0.28,0.83,-0.25,0.0,2022-03-04 10:16:45.298,0
768,15962,-0.24,0.76,-0.23,0.0,2022-03-04 10:16:45.397,0
769,15982,-0.27,0.71,-0.26,0.0,2022-03-04 10:16:45.496,0
770,16004,-0.2,0.72,-0.23,0.0,2022-03-04 10:16:45.595,0
771,16024,-0.16,0.73,-0.34,0.0,2022-03-04 10:16:45.694,0
772,16044,-0.2,0.66,-0.26,0.0,2022-03-04 10:16:45.794,0
773,16064,-0.24,0.68,-0.22,0.0,2022-03-04 10:16:45.893,0
774,16084,-0.19,0.68,-0.36,0.0,2022-03-04 10:16:45.993,0
775,16104,-0.27,0.72,0.31,0.0,2022-03-04 10:16:46.091,0
776,16128,-0.21,0.65,-0.3,0.0,2022-03-04 10:16:46.192,0
777,16148,-0.24,0.65,-0.28,0.0,2022-03-04 10:16:46.290,0
778,16170,-0.28,0.61,0.19,0.0,2022-03-04 10:16:46.399,0
779,16190,-0.17,0.61,-0.28,0.0,2022-03-04 10:16:46.499,0
780,16212,-0.27,0.66,-0.29,0.0,2022-03-04 10:16:46.598,0
781,16232,-0.27,0.57,-0.43,0.0,2022-03-04 10:16:46.698,0
782,16252,-0.29,0.6,-0.29,0.0,2022-03-04 10:16:46.796,0
783,16272,-0.25,0.61,-0.46,0.0,2022-03-04 10:16:46.897,0
784,16292,-0.26,0.58,-0.33,0.0,2022-03-04 10:16:46.995,0
785,16310,-0.24,0.57,-0.25,0.0,2022-03-04 10:16:47.086,0
786,16336,-0.26,0.53,-0.27,0.0,2022-03-04 10:16:47.194,0
787,16356,-0.22,0.57,-0.27,0.0,2022-03-04 10:16:47.293,0
788,16376,-0.19,0.56,-0.28,0.0,2022-03-04 10:16:47.392,0
789,16396,-0.24,0.56,-0.28,0.0,2022-03-04 10:16:47.493,0
790,16418,0.18,0.5,-0.35,0.0,2022-03-04 10:16:47.591,0
791,16438,-0.24,0.49,-0.27,0.0,2022-03-04 10:16:47.690,0
792,16460,-0.26,0.48,0.22,0.0,2022-03-04 10:16:47.799,0
793,16480,-0.19,0.48,-0.26,0.0,2022-03-04 10:16:47.898,0
794,16500,-0.29,0.45,-0.28,0.0,2022-03-04 10:16:47.998,0
795,16520,-0.29,0.48,-0.3,0.0,2022-03-04 10:16:48.097,0
796,16536,-0.23,0.47,-0.26,0.0,2022-03-04 10:16:48.178,0
