,LineNumber,Accel_X,Accel_Y,Accel_Z,Velocity,RealTime,Label
0,36,0.25,-0.43,0.39,0.0,2022-03-04 10:02:44.390,0
1,56,0.21,-0.1,-0.26,0.0,2022-03-04 10:02:44.489,0
2,80,-0.16,0.11,-0.3,0.0,2022-03-04 10:02:44.598,0
3,100,0.17,-0.09,-0.26,0.0,2022-03-04 10:02:44.697,0
4,120,0.2,0.1,-0.32,0.0,2022-03-04 10:02:44.796,0
5,140,-0.11,0.07,0.21,0.0,2022-03-04 10:02:44.895,0
6,160,0.15,-0.1,-0.3,0.0,2022-03-04 10:02:44.995,0
7,180,-0.16,0.1,-0.28,0.0,2022-03-04 10:02:45.094,0
8,204,-0.16,0.1,-0.23,0.0,2022-03-04 10:02:45.194,0
9,224,-0.2,-0.08,-0.31,0.0,2022-03-04 10:02:45.295,0
10,244,0.16,0.07,-0.3,0.0,2022-03-04 10:02:45.391,0
11,264,-0.19,-0.09,-0.28,0.0,2022-03-04 10:02:45.491,0
12,286,0.18,0.1,-0.24,0.0,2022-03-04 10:02:45.591,0
13,306,0.18,-0.08,-0.25,0.0,2022-03-04 10:02:45.690,0
14,328,-0.14,-0.07,-0.25,0.0,2022-03-04 10:02:45.799,0
15,348,0.17,0.08,-0.3,0.0,2022-03-04 10:02:45.899,0
16,368,0.19,-0.1,-0.25,0.0,2022-03-04 10:02:45.998,0
17,388,0.16,0.1,0.19,0.0,2022-03-04 10:02:46.097,0
18,412,-0.12,0.09,-0.27,0.0,2022-03-04 10:02:46.196,0
19,432,0.13,-0.05,-0.37,0.0,2022-03-04 10:02:46.296,0
20,452,0.18,0.1,0.19,0.0,2022-03-04 10:02:46.395,0
21,472,0.18,0.08,-0.26,0.0,2022-03-04 10:02:46.494,0
22,494,-0.16,0.09,0.16,0.0,2022-03-04 10:02:46.593,0
23,514,0.13,0.08,-0.29,0.0,2022-03-04 10:02:46.692,0
24,534,-0.19,0.07,-0.26,0.0,2022-03-04 10:02:46.791,0
25,554,0.2,-0.08,-0.23,0.0,2022-03-04 10:02:46.892,0
26,574,-0.15,0.06,-0.23,0.0,2022-03-04 10:02:46.990,0
27,594,0.17,-0.12,-0.26,0.0,2022-03-04 10:02:47.093,0
28,616,0.16,-0.07,-0.31,0.0,2022-03-04 10:02:47.199,0
29,640,0.16,0.07,0.21,0.0,2022-03-04 10:02:47.298,0
30,660,0.14,-0.12,-0.26,0.0,2022-03-04 10:02:47.398,0
31,680,0.18,0.08,-0.28,0.0,2022-03-04 10:02:47.496,0
32,702,-0.16,0.1,-0.26,0.0,2022-03-04 10:02:47.595,0
33,722,0.15,-0.09,-0.19,0.0,2022-03-04 10:02:47.694,0
34,742,0.2,0.07,-0.3,0.0,2022-03-04 10:02:47.794,0
35,762,-0.19,-0.08,-0.25,0.0,2022-03-04 10:02:47.893,0
36,782,-0.15,0.1,-0.23,0.0,2022-03-04 10:02:47.992,0
37,802,0.18,-0.1,-0.25,0.0,2022-03-04 10:02:48.094,0
38,826,0.13,0.09,-0.2,0.0,2022-03-04 10:02:48.191,0
39,846,0.15,-0.1,-0.29,0.0,2022-03-04 10:02:48.290,0
40,866,0.18,0.1,-0.29,0.0,2022-03-04 10:02:48.390,0
41,886,0.18,0.08,-0.26,0.0,2022-03-04 10:02:48.489,0
42,910,0.21,-0.09,-0.21,0.0,2022-03-04 10:02:48.598,0
43,930,0.12,0.08,-0.22,0.0,2022-03-04 10:02:48.697,0
44,950,-0.22,-0.09,-0.26,0.0,2022-03-04 10:02:48.798,0
45,970,0.12,0.09,-0.29,0.0,2022-03-04 10:02:48.896,0
46,990,0.2,0.08,-0.2,0.0,2022-03-04 10:02:48.996,0
47,1010,0.17,0.09,-0.2,0.0,2022-03-04 10:02:49.094,0
48,1034,-0.14,-0.11,-0.26,0.0,2022-03-04 10:02:49.194,0
49,1054,-0.21,-0.06,-0.25,0.0,2022-03-04 10:02:49.293,0
50,1074,-0.15,-0.06,-0.29,0.0,2022-03-04 10:02:49.394,0
51,1094,0.21,0.09,-0.18,0.0,2022-03-04 10:02:49.491,0
52,1116,0.15,0.11,-0.19,0.0,2022-03-04 10:02:49.591,0
53,1136,-0.12,-0.09,-0.23,0.0,2022-03-04 10:02:49.690,0
54,1156,0.13,-0.07,-0.29,0.0,2022-03-04 10:02:49.789,0
55,1176,0.19,-0.08,-0.23,0.0,2022-03-04 10:02:49.888,0
56,1196,0.18,0.1,-0.27,0.0,2022-03-04 10:02:49.989,0
57,1216,-0.13,-0.08,0.23,0.0,2022-03-04 10:02:50.088,0
58,1242,-0.15,-0.08,-0.23,0.0,2022-03-04 10:02:50.196,0
59,1262,0.13,-0.07,-0.3,0.0,2022-03-04 10:02:50.296,0
60,1282,0.19,0.06,-0.25,0.0,2022-03-04 10:02:50.395,0
61,1302,0.14,0.09,-0.2,0.0,2022-03-04 10:02:50.494,0
62,1324,-0.15,-0.12,-0.2,0.0,2022-03-04 10:02:50.593,0
63,1344,-0.21,0.08,-0.27,0.0,2022-03-04 10:02:50.693,0
64,1364,0.17,-0.11,-0.31,0.0,2022-03-04 10:02:50.792,0
65,1384,0.18,0.11,-0.24,0.0,2022-03-04 10:02:50.891,0
66,1404,-0.15,0.09,-0.32,0.0,2022-03-04 10:02:50.991,0
67,1424,-0.13,-0.07,-0.23,0.0,2022-03-04 10:02:51.090,0
68,1450,-0.14,-0.11,-0.31,0.0,2022-03-04 10:02:51.199,0
69,1468,0.16,-0.1,-0.3,0.0,2022-03-04 10:02:51.288,0
70,1490,0.16,0.09,-0.27,0.0,2022-03-04 10:02:51.399,0
71,1510,-0.2,-0.1,-0.28,0.0,2022-03-04 10:02:51.499,0
72,1532,-0.16,0.07,-0.21,0.0,2022-03-04 10:02:51.596,0
73,1552,0.14,-0.09,-0.29,0.0,2022-03-04 10:02:51.696,0
74,1572,-0.18,0.11,-0.29,0.0,2022-03-04 10:02:51.794,0
75,1592,-0.15,-0.08,-0.27,0.0,2022-03-04 10:02:51.895,0
76,1612,0.22,-0.08,-0.23,0.0,2022-03-04 10:02:51.993,0
77,1632,0.16,0.06,-0.27,0.0,2022-03-04 10:02:52.092,0
78,1656,-0.22,-0.09,-0.25,0.0,2022-03-04 10:02:52.191,0
79,1676,0.15,0.1,-0.34,0.0,2022-03-04 10:02:52.291,0
80,1696,0.18,-0.1,-0.24,0.0,2022-03-04 10:02:52.390,0
81,1718,0.15,-0.13,-0.25,0.0,2022-03-04 10:02:52.499,0
82,1740,0.15,0.1,-0.28,0.0,2022-03-04 10:02:52.599,0
83,1760,-0.19,-0.09,-0.29,0.0,2022-03-04 10:02:52.698,0
84,1780,-0.14,0.1,-0.28,0.0,2022-03-04 10:02:52.798,0
85,1800,0.18,-0.1,-0.18,0.0,2022-03-04 10:02:52.898,0
86,1820,0.14,0.1,-0.19,0.0,2022-03-04 10:02:52.995,0
87,1840,-0.12,-0.12,-0.24,0.0,2022-03-04 10:02:53.098,0
88,1864,0.37,-0.17,-0.25,0.0,2022-03-04 10:02:53.195,0
89,1884,0.24,0.1,-0.29,0.0,2022-03-04 10:02:53.293,0
90,1904,0.18,-0.11,-0.22,0.0,2022-03-04 10:02:53.392,0
91,1924,-0.17,0.09,0.28,0.0,2022-03-04 10:02:53.493,0
92,1946,-0.22,0.1,-0.37,0.0,2022-03-04 10:02:53.591,0
93,1966,0.11,0.12,-0.3,0.0,2022-03-04 10:02:53.690,0
94,1986,0.1,0.12,-0.23,0.0,2022-03-04 10:02:53.790,0
95,2008,-0.24,0.28,-0.54,0.0,2022-03-04 10:02:53.899,0
96,2028,0.15,-0.12,-0.19,0.0,2022-03-04 10:02:53.999,0
97,2046,-0.22,0.05,-0.31,0.0,2022-03-04 10:02:54.087,0
98,2072,0.18,0.13,-0.33,0.0,2022-03-04 10:02:54.197,0
99,2092,-0.18,-0.1,-0.26,0.0,2022-03-04 10:02:54.296,0
100,2112,0.16,0.11,-0.28,0.0,2022-03-04 10:02:54.398,0
101,2132,-0.16,0.09,-0.37,0.0,2022-03-04 10:02:54.494,0
102,2154,0.17,-0.08,-0.27,0.0,2022-03-04 10:02:54.594,0
103,2174,0.21,0.07,-0.25,0.0,2022-03-04 10:02:54.693,0
104,2194,0.14,0.05,0.23,0.0,2022-03-04 10:02:54.792,0
105,2214,-0.13,-0.08,-0.25,0.0,2022-03-04 10:02:54.891,0
106,2234,0.16,0.08,-0.34,0.0,2022-03-04 10:02:54.992,0
107,2254,0.18,0.1,-0.28,0.0,2022-03-04 10:02:55.090,0
108,2278,0.21,-0.14,-0.25,0.0,2022-03-04 10:02:55.189,0
109,2298,-0.12,0.09,-0.29,0.0,2022-03-04 10:02:55.288,0
110,2320,-0.19,0.09,-0.25,0.0,2022-03-04 10:02:55.398,0
111,2340,0.17,0.08,-0.29,0.0,2022-03-04 10:02:55.499,0
112,2362,0.18,0.06,-0.24,0.0,2022-03-04 10:02:55.596,0
113,2382,0.17,-0.12,-0.25,0.0,2022-03-04 10:02:55.696,0
114,2402,0.16,0.1,-0.3,0.0,2022-03-04 10:02:55.798,0
115,2422,-0.18,0.09,-0.33,0.0,2022-03-04 10:02:55.896,0
116,2442,-0.13,-0.06,-0.31,0.0,2022-03-04 10:02:55.993,0
117,2462,0.2,-0.07,-0.22,0.0,2022-03-04 10:02:56.092,0
118,2486,-0.13,0.09,0.18,0.0,2022-03-04 10:02:56.192,0
119,2506,0.1,0.1,-0.25,0.0,2022-03-04 10:02:56.291,0
120,2526,-0.19,-0.08,-0.27,0.0,2022-03-04 10:02:56.390,0
121,2546,0.19,-0.09,-0.25,0.0,2022-03-04 10:02:56.490,0
122,2570,0.18,0.1,-0.22,0.0,2022-03-04 10:02:56.599,0
123,2590,-0.24,0.1,-0.17,0.0,2022-03-04 10:02:56.698,0
124,2610,0.11,0.08,-0.3,0.0,2022-03-04 10:02:56.797,0
125,2630,0.13,0.08,-0.26,0.0,2022-03-04 10:02:56.898,0
126,2650,0.18,0.1,-0.27,0.0,2022-03-04 10:02:56.997,0
127,2670,-0.11,0.11,-0.27,0.0,2022-03-04 10:02:57.098,0
128,2694,0.14,-0.11,-0.26,0.0,2022-03-04 10:02:57.195,0
129,2714,-0.16,-0.08,-0.27,0.0,2022-03-04 10:02:57.295,0
130,2734,0.17,0.08,-0.27,0.0,2022-03-04 10:02:57.394,0
131,2754,0.2,-0.1,-0.22,0.0,2022-03-04 10:02:57.494,0
132,2776,-0.16,0.1,-0.22,0.0,2022-03-04 10:02:57.591,0
133,2796,0.14,-0.11,-0.33,0.0,2022-03-04 10:02:57.692,0
134,2816,-0.1,0.08,-0.29,0.0,2022-03-04 10:02:57.790,0
135,2836,0.17,-0.1,-0.22,0.0,2022-03-04 10:02:57.889,0
136,2858,-0.18,0.08,-0.24,0.0,2022-03-04 10:02:57.998,0
137,2876,0.19,0.09,-0.18,0.0,2022-03-04 10:02:58.088,0
138,2900,0.13,-0.09,-0.31,0.0,2022-03-04 10:02:58.187,0
139,2922,-0.13,0.1,-0.29,0.0,2022-03-04 10:02:58.297,0
140,2942,0.2,0.1,-0.21,0.0,2022-03-04 10:02:58.396,0
141,2962,0.17,-0.1,-0.22,0.0,2022-03-04 10:02:58.498,0
142,2984,-0.49,0.28,-0.29,0.0,2022-03-04 10:02:58.594,0
143,3004,-0.23,-0.1,-0.31,0.0,2022-03-04 10:02:58.695,0
144,3024,-0.13,-0.07,-0.21,0.0,2022-03-04 10:02:58.793,0
145,3044,0.17,-0.07,-0.22,0.0,2022-03-04 10:02:58.894,0
146,3064,0.12,0.12,-0.22,0.0,2022-03-04 10:02:58.991,0
147,3084,0.16,-0.12,-0.24,0.0,2022-03-04 10:02:59.090,0
148,3110,0.21,0.1,-0.3,0.0,2022-03-04 10:02:59.199,0
149,3130,-0.21,-0.09,-0.18,0.0,2022-03-04 10:02:59.299,0
150,3150,0.15,-0.07,-0.32,0.0,2022-03-04 10:02:59.399,0
151,3170,-0.17,0.11,-0.27,0.0,2022-03-04 10:02:59.497,0
152,3192,-0.13,-0.12,-0.28,0.0,2022-03-04 10:02:59.596,0
153,3212,0.14,-0.1,-0.3,0.0,2022-03-04 10:02:59.697,0
154,3232,0.18,0.11,-0.29,0.0,2022-03-04 10:02:59.796,0
155,3252,0.12,-0.06,-0.24,0.0,2022-03-04 10:02:59.894,0
156,3272,0.21,-0.1,-0.25,0.0,2022-03-04 10:02:59.995,0
157,3292,-0.18,-0.12,0.22,0.0,2022-03-04 10:03:00.095,0
158,3312,-0.18,0.11,-0.24,0.0,2022-03-04 10:03:00.193,0
159,3334,0.14,0.05,-0.28,0.0,2022-03-04 10:03:00.293,0
160,3356,0.2,-0.07,-0.25,0.0,2022-03-04 10:03:00.392,0
161,3376,-0.24,0.1,-0.23,0.0,2022-03-04 10:03:00.490,0
162,3400,0.13,-0.13,-0.21,0.0,2022-03-04 10:03:00.599,0
163,3420,-0.14,0.11,-0.41,0.0,2022-03-04 10:03:00.698,0
164,3440,-0.15,0.08,-0.3,0.0,2022-03-04 10:03:00.798,0
165,3460,-0.24,0.12,-0.26,0.0,2022-03-04 10:03:00.897,0
166,3480,-0.09,0.15,-0.31,0.0,2022-03-04 10:03:00.997,0
167,3500,0.16,0.09,-0.29,0.0,2022-03-04 10:03:01.096,0
168,3524,0.17,-0.11,-0.27,0.0,2022-03-04 10:03:01.196,0
169,3544,-0.24,-0.08,-0.24,0.0,2022-03-04 10:03:01.298,0
170,3564,0.11,0.09,-0.19,0.0,2022-03-04 10:03:01.393,1
171,3584,-0.1,0.27,-0.2,0.0,2022-03-04 10:03:01.492,1
172,3606,-0.23,0.37,-0.32,0.0,2022-03-04 10:03:01.592,1
173,3626,-0.18,0.45,-0.25,0.0,2022-03-04 10:03:01.692,1
174,3646,-0.21,0.49,0.3,0.0,2022-03-04 10:03:01.792,1
175,3666,-0.25,0.54,-0.29,0.0,2022-03-04 10:03:01.889,1
176,3688,-0.19,0.65,-0.21,0.0,2022-03-04 10:03:01.998,1
177,3708,-0.29,0.85,-0.41,0.0,2022-03-04 10:03:02.098,1
178,3728,-0.36,0.85,-0.54,0.0,2022-03-04 10:03:02.197,1
179,3752,-0.34,1.14,-0.61,0.0,2022-03-04 10:03:02.296,1
180,3772,-0.32,1.16,-0.49,0.0,2022-03-04 10:03:02.395,1
181,3792,-0.38,1.2,-0.69,0.0,2022-03-04 10:03:02.496,1
182,3814,-0.45,1.25,-0.54,0.0,2022-03-04 10:03:02.595,1
183,3834,-0.56,1.29,-0.7,0.0,2022-03-04 10:03:02.693,1
184,3854,0.56,1.34,-0.74,0.0,2022-03-04 10:03:02.793,1
185,3874,-0.71,1.32,0.57,0.0,2022-03-04 10:03:02.892,1
186,3894,-0.54,1.34,-0.63,0.0,2022-03-04 10:03:02.991,1
187,3914,-0.53,1.28,-0.75,0.0,2022-03-04 10:03:03.094,1
188,3940,-0.72,1.37,0.82,1.8,2022-03-04 10:03:03.199,1
189,3960,-0.72,1.24,0.57,1.8,2022-03-04 10:03:03.299,1
190,3980,0.68,1.2,-0.76,1.8,2022-03-04 10:03:03.398,1
191,4000,-0.64,1.25,0.89,1.8,2022-03-04 10:03:03.497,1
192,4022,-0.7,1.26,-0.67,1.8,2022-03-04 10:03:03.597,1
193,4042,0.49,1.27,0.63,1.8,2022-03-04 10:03:03.696,1
194,4062,-0.53,1.2,0.73,1.8,2022-03-04 10:03:03.795,1
195,4082,-0.51,1.28,1.27,1.8,2022-03-04 10:03:03.895,1
196,4102,-0.44,1.17,-0.91,1.8,2022-03-04 10:03:03.994,1
197,4122,-0.48,1.19,-0.5,1.8,2022-03-04 10:03:04.094,1
198,4146,0.44,0.92,-0.53,5.8,2022-03-04 10:03:04.193,1
199,4166,-0.56,0.66,-0.46,5.8,2022-03-04 10:03:04.291,1
200,4186,-0.79,0.54,-0.39,5.8,2022-03-04 10:03:04.392,1
201,4206,0.4,0.43,0.29,5.8,2022-03-04 10:03:04.491,1
202,4230,0.35,0.66,-0.6,5.8,2022-03-04 10:03:04.599,1
203,4250,-0.43,0.74,-0.82,5.8,2022-03-04 10:03:04.698,1
204,4270,0.37,0.73,-0.46,5.8,2022-03-04 10:03:04.799,1
205,4290,-0.59,0.32,-0.7,5.8,2022-03-04 10:03:04.897,1
206,4310,0.32,0.36,-0.54,5.8,2022-03-04 10:03:04.998,1
207,4330,0.32,0.22,0.4,5.8,2022-03-04 10:03:05.099,1
208,4354,-0.49,-0.2,0.38,10.8,2022-03-04 10:03:05.197,1
209,4374,-0.54,-0.22,-0.46,10.8,2022-03-04 10:03:05.294,1
210,4394,-0.33,0.15,-0.48,10.8,2022-03-04 10:03:05.393,1
211,4414,0.32,0.44,-0.22,10.8,2022-03-04 10:03:05.493,1
212,4436,0.36,0.42,-0.45,10.8,2022-03-04 10:03:05.593,1
213,4456,-0.48,0.54,-0.67,10.8,2022-03-04 10:03:05.692,1
214,4476,-0.58,0.74,0.48,10.8,2022-03-04 10:03:05.791,1
215,4496,-0.45,0.85,-0.4,10.8,2022-03-04 10:03:05.890,1
216,4518,-0.89,0.99,0.56,10.8,2022-03-04 10:03:05.999,1
217,4538,-0.6,1.01,-0.69,10.8,2022-03-04 10:03:06.099,1
218,4560,-0.61,0.87,-0.84,12.6,2022-03-04 10:03:06.190,1
219,4582,0.56,0.83,0.67,12.6,2022-03-04 10:03:06.297,1
220,4602,0.66,0.84,-0.71,12.6,2022-03-04 10:03:06.396,1
221,4622,-0.68,0.75,-0.64,12.6,2022-03-04 10:03:06.495,1
222,4644,-0.29,0.79,0.19,12.6,2022-03-04 10:03:06.598,1
223,4664,-0.65,0.71,0.95,12.6,2022-03-04 10:03:06.694,1
224,4684,-0.72,0.81,0.44,12.6,2022-03-04 10:03:06.793,1
225,4704,-0.44,0.69,-0.84,12.6,2022-03-04 10:03:06.893,1
226,4724,-0.51,0.78,0.67,12.6,2022-03-04 10:03:06.991,1
227,4744,-0.55,0.82,-0.48,12.6,2022-03-04 10:03:07.093,1
228,4764,-0.82,0.94,1.17,12.6,2022-03-04 10:03:07.190,1
229,4790,-0.49,0.9,-0.99,15.5,2022-03-04 10:03:07.299,1
230,4810,0.63,0.97,-0.6,15.5,2022-03-04 10:03:07.398,1
231,4830,-0.45,0.66,-0.51,15.5,2022-03-04 10:03:07.499,1
232,4852,-0.47,0.78,0.8,15.5,2022-03-04 10:03:07.597,1
233,4872,-0.79,0.8,-0.68,15.5,2022-03-04 10:03:07.697,1
234,4892,-0.54,0.71,-0.59,15.5,2022-03-04 10:03:07.796,1
235,4912,-0.29,0.76,0.68,15.5,2022-03-04 10:03:07.895,1
236,4932,0.28,0.71,-0.54,15.5,2022-03-04 10:03:07.994,1
237,4952,0.45,0.68,0.85,15.5,2022-03-04 10:03:08.094,1
238,4972,-0.38,0.68,-0.59,15.5,2022-03-04 10:03:08.194,1
239,4996,-0.45,0.71,-0.46,18.7,2022-03-04 10:03:08.292,1
240,5016,-0.72,0.76,0.52,18.7,2022-03-04 10:03:08.391,1
241,5036,-0.43,0.79,-0.99,18.7,2022-03-04 10:03:08.491,1
242,5060,-0.95,0.62,-0.81,18.7,2022-03-04 10:03:08.599,1
243,5080,0.62,0.68,-0.68,18.7,2022-03-04 10:03:08.699,1
244,5100,-0.94,0.6,0.84,18.7,2022-03-04 10:03:08.798,1
245,5118,-0.8,0.58,-0.72,18.7,2022-03-04 10:03:08.887,1
246,5140,0.86,0.56,-1.11,18.7,2022-03-04 10:03:08.997,1
247,5160,0.75,0.41,-1.05,18.7,2022-03-04 10:03:09.096,1
248,5184,0.65,-0.84,-0.93,21.6,2022-03-04 10:03:09.195,1
249,5204,-0.63,-0.92,-0.46,21.6,2022-03-04 10:03:09.294,1
250,5224,0.65,-0.9,-0.4,21.6,2022-03-04 10:03:09.394,1
251,5244,0.47,-0.9,0.95,21.6,2022-03-04 10:03:09.493,1
252,5266,0.68,-0.85,1.05,21.6,2022-03-04 10:03:09.592,1
253,5286,0.52,-0.68,-0.81,21.6,2022-03-04 10:03:09.691,1
254,5306,0.88,-1.1,0.76,21.6,2022-03-04 10:03:09.791,1
255,5326,-0.85,-0.98,-0.5,21.6,2022-03-04 10:03:09.890,1
256,5346,-0.54,-0.92,-0.75,21.6,2022-03-04 10:03:09.990,1
257,5366,0.68,-0.77,-0.65,21.6,2022-03-04 10:03:10.088,1
258,5392,0.47,-0.5,0.92,24.1,2022-03-04 10:03:10.199,1
259,5412,0.46,0.35,0.55,24.1,2022-03-04 10:03:10.297,1
260,5432,-0.33,0.6,-0.71,24.1,2022-03-04 10:03:10.397,1
261,5452,-0.35,1.11,0.62,24.1,2022-03-04 10:03:10.496,1
262,5474,-0.44,1.26,0.54,24.1,2022-03-04 10:03:10.596,1
263,5494,-0.36,-0.76,0.65,24.1,2022-03-04 10:03:10.694,1
264,5514,-0.61,1.07,-1.01,24.1,2022-03-04 10:03:10.793,1
265,5534,0.39,1.15,-0.94,24.1,2022-03-04 10:03:10.892,1
266,5554,0.65,1.02,0.73,24.1,2022-03-04 10:03:10.992,1
267,5574,-0.77,1.08,0.82,24.1,2022-03-04 10:03:11.091,1
268,5598,1.0,0.53,-1.02,25.2,2022-03-04 10:03:11.193,1
269,5618,0.41,0.82,-1.25,25.2,2022-03-04 10:03:11.289,1
270,5638,-0.56,0.69,-1.0,25.2,2022-03-04 10:03:11.390,1
271,5660,0.8,0.67,1.02,25.2,2022-03-04 10:03:11.499,1
272,5682,0.52,0.92,-0.81,25.2,2022-03-04 10:03:11.598,1
273,5702,-0.54,0.5,1.12,25.2,2022-03-04 10:03:11.697,1
274,5722,-0.66,0.37,-0.6,25.2,2022-03-04 10:03:11.796,1
275,5742,0.82,0.39,0.83,25.2,2022-03-04 10:03:11.895,1
276,5762,0.65,0.44,0.84,25.2,2022-03-04 10:03:11.994,1
277,5782,-0.49,0.43,-0.75,25.2,2022-03-04 10:03:12.097,1
278,5806,-0.84,0.48,-1.29,26.6,2022-03-04 10:03:12.193,1
279,5826,-0.5,0.34,-0.9,26.6,2022-03-04 10:03:12.292,1
280,5846,0.52,-0.27,0.96,26.6,2022-03-04 10:03:12.392,1
281,5866,-0.86,0.6,1.04,26.6,2022-03-04 10:03:12.491,1
282,5888,-1.09,0.72,-0.81,26.6,2022-03-04 10:03:12.590,1
283,5908,-0.83,0.6,0.57,26.6,2022-03-04 10:03:12.689,1
284,5930,-0.51,0.53,0.96,26.6,2022-03-04 10:03:12.798,1
285,5950,0.79,0.34,-1.05,26.6,2022-03-04 10:03:12.898,1
286,5970,-0.7,0.26,-1.04,26.6,2022-03-04 10:03:12.997,1
287,5988,1.19,0.34,-0.88,26.6,2022-03-04 10:03:13.090,1
288,6014,0.95,0.67,-0.83,29.2,2022-03-04 10:03:13.196,1
289,6034,0.82,0.62,-0.99,29.2,2022-03-04 10:03:13.294,1
290,6054,1.22,1.35,-1.73,29.2,2022-03-04 10:03:13.394,1
291,6074,0.92,-1.33,-1.2,29.2,2022-03-04 10:03:13.493,1
292,6096,0.97,-1.48,1.21,29.2,2022-03-04 10:03:13.592,1
293,6116,1.24,-1.33,1.33,29.2,2022-03-04 10:03:13.692,1
294,6136,1.13,-0.86,1.37,29.2,2022-03-04 10:03:13.791,1
295,6156,0.79,-0.94,0.83,29.2,2022-03-04 10:03:13.891,1
296,6176,1.47,-1.48,-1.65,29.2,2022-03-04 10:03:13.989,1
297,6196,-0.8,-1.23,-2.53,29.2,2022-03-04 10:03:14.091,1
298,6216,0.72,-0.84,-1.24,29.2,2022-03-04 10:03:14.188,1
299,6242,0.56,-0.48,0.9,31.3,2022-03-04 10:03:14.297,1
300,6262,0.68,-0.38,-0.5,31.3,2022-03-04 10:03:14.397,1
301,6282,-0.7,0.66,0.67,31.3,2022-03-04 10:03:14.496,1
302,6304,-0.37,0.64,-0.75,31.3,2022-03-04 10:03:14.595,1
303,6324,-0.49,-0.31,0.76,31.3,2022-03-04 10:03:14.694,1
304,6344,-0.73,0.31,-0.55,31.3,2022-03-04 10:03:14.794,1
305,6364,-0.54,0.19,0.75,31.3,2022-03-04 10:03:14.893,1
306,6384,-1.31,0.39,-1.0,31.3,2022-03-04 10:03:14.992,1
307,6404,-0.52,0.23,-0.86,31.3,2022-03-04 10:03:15.091,1
308,6428,-0.84,0.4,-0.54,32.0,2022-03-04 10:03:15.191,1
309,6448,-0.74,-0.27,-0.48,32.0,2022-03-04 10:03:15.290,1
310,6470,-1.18,0.4,0.76,32.0,2022-03-04 10:03:15.399,1
311,6490,-0.62,0.27,-1.24,32.0,2022-03-04 10:03:15.499,1
312,6512,1.17,-0.36,-0.71,32.0,2022-03-04 10:03:15.599,1
313,6532,-1.06,0.2,1.11,32.0,2022-03-04 10:03:15.699,1
314,6552,-0.76,-0.54,-0.71,32.0,2022-03-04 10:03:15.798,1
315,6572,-0.54,0.67,0.89,32.0,2022-03-04 10:03:15.895,1
316,6592,-1.0,-0.48,-1.13,32.0,2022-03-04 10:03:15.995,1
317,6612,0.79,-0.64,-1.39,32.0,2022-03-04 10:03:16.095,1
318,6636,0.98,0.56,-1.25,34.2,2022-03-04 10:03:16.195,1
319,6656,1.12,0.41,-0.97,34.2,2022-03-04 10:03:16.292,1
320,6676,-1.18,-0.6,0.89,34.2,2022-03-04 10:03:16.391,1
321,6696,-1.0,-0.85,-0.82,34.2,2022-03-04 10:03:16.491,1
322,6718,-1.36,-0.53,-0.66,34.2,2022-03-04 10:03:16.591,1
323,6738,-1.0,0.33,0.83,34.2,2022-03-04 10:03:16.690,1
324,6760,1.16,-0.54,-0.95,34.2,2022-03-04 10:03:16.799,1
325,6778,0.9,0.32,0.45,34.2,2022-03-04 10:03:16.888,1
326,6800,-0.74,0.36,-0.83,34.2,2022-03-04 10:03:16.999,1
327,6820,-0.72,0.44,-1.08,34.2,2022-03-04 10:03:17.098,1
328,6844,0.89,0.66,1.1,35.6,2022-03-04 10:03:17.197,1
329,6864,-0.64,0.65,-1.37,35.6,2022-03-04 10:03:17.298,1
330,6884,0.76,0.66,1.36,35.6,2022-03-04 10:03:17.394,1
331,6904,-1.08,0.53,-1.16,35.6,2022-03-04 10:03:17.493,1
332,6926,1.39,0.53,-1.42,35.6,2022-03-04 10:03:17.593,1
333,6946,0.96,0.43,1.55,35.6,2022-03-04 10:03:17.692,1
334,6966,-1.02,0.42,-1.35,35.6,2022-03-04 10:03:17.791,1
335,6986,-1.07,0.72,-1.48,35.6,2022-03-04 10:03:17.891,1
336,7006,1.22,0.77,-1.25,35.6,2022-03-04 10:03:17.989,1
337,7026,-1.37,0.65,-1.19,35.6,2022-03-04 10:03:18.091,1
338,7050,0.91,0.59,-1.49,37.8,2022-03-04 10:03:18.191,1
339,7072,1.13,0.65,-0.58,37.8,2022-03-04 10:03:18.299,1
340,7092,0.52,-0.54,-1.34,37.8,2022-03-04 10:03:18.398,1
341,7112,0.78,0.71,-1.66,37.8,2022-03-04 10:03:18.497,1
342,7134,0.61,-0.71,-1.52,37.8,2022-03-04 10:03:18.596,1
343,7154,-1.86,1.21,-1.38,37.8,2022-03-04 10:03:18.697,1
344,7174,1.2,-1.29,-1.23,37.8,2022-03-04 10:03:18.794,1
345,7192,0.93,-1.37,2.42,37.8,2022-03-04 10:03:18.883,1
346,7214,1.17,-0.64,-2.08,37.8,2022-03-04 10:03:18.992,1
347,7234,0.93,-0.52,-0.57,37.8,2022-03-04 10:03:19.092,1
348,7256,-0.84,-0.57,1.73,40.3,2022-03-04 10:03:19.196,1
349,7278,1.1,-0.45,-0.85,40.3,2022-03-04 10:03:19.291,1
350,7298,1.02,-0.89,-1.21,40.3,2022-03-04 10:03:19.390,1
351,7318,-1.04,-0.49,1.07,40.3,2022-03-04 10:03:19.489,1
352,7342,-1.82,-1.1,1.55,40.3,2022-03-04 10:03:19.599,1
353,7362,1.3,-0.53,-1.44,40.3,2022-03-04 10:03:19.698,1
354,7380,0.96,-0.54,0.65,40.3,2022-03-04 10:03:19.787,1
355,7402,0.99,-0.53,-1.9,40.3,2022-03-04 10:03:19.895,1
356,7422,-0.55,-0.6,-1.7,40.3,2022-03-04 10:03:19.996,1
357,7442,0.59,-0.53,0.96,40.3,2022-03-04 10:03:20.097,1
358,7466,1.62,-1.13,-0.79,41.4,2022-03-04 10:03:20.194,1
359,7486,0.77,-0.58,0.82,41.4,2022-03-04 10:03:20.293,1
360,7506,0.86,-0.42,-1.32,41.4,2022-03-04 10:03:20.392,1
361,7526,-0.52,-0.57,1.59,41.4,2022-03-04 10:03:20.491,1
362,7548,0.92,-0.98,1.08,41.4,2022-03-04 10:03:20.591,1
363,7568,1.7,-1.04,-0.89,41.4,2022-03-04 10:03:20.690,1
364,7590,1.1,-1.13,-1.79,41.4,2022-03-04 10:03:20.799,1
365,7610,1.09,-1.06,-1.46,41.4,2022-03-04 10:03:20.898,1
366,7630,1.85,-1.15,-1.14,41.4,2022-03-04 10:03:20.999,1
367,7648,1.07,-0.94,0.91,41.4,2022-03-04 10:03:21.087,1
368,7674,-1.44,-1.37,-0.93,42.1,2022-03-04 10:03:21.199,1
369,7694,-1.34,-1.23,1.78,42.1,2022-03-04 10:03:21.296,1
370,7714,-1.47,-1.34,-1.01,42.1,2022-03-04 10:03:21.395,1
371,7734,1.36,-1.14,-1.62,42.1,2022-03-04 10:03:21.495,1
372,7756,1.1,-1.07,-1.25,42.1,2022-03-04 10:03:21.597,1
373,7776,1.49,0.62,-1.62,42.1,2022-03-04 10:03:21.692,1
374,7796,-1.41,0.77,-0.93,42.1,2022-03-04 10:03:21.795,1
375,7816,-0.8,1.09,1.05,42.1,2022-03-04 10:03:21.891,1
376,7836,-0.39,0.61,1.24,42.1,2022-03-04 10:03:21.991,1
377,7856,-0.33,0.48,0.9,42.1,2022-03-04 10:03:22.090,1
378,7882,0.67,0.58,-1.21,43.2,2022-03-04 10:03:22.199,1
379,7902,-0.82,0.34,-1.21,43.2,2022-03-04 10:03:22.299,1
380,7922,-1.17,0.52,-1.17,43.2,2022-03-04 10:03:22.398,1
381,7940,1.31,0.87,-1.61,43.2,2022-03-04 10:03:22.487,1
382,7964,-2.9,0.61,1.01,43.2,2022-03-04 10:03:22.598,1
383,7982,1.86,-0.54,-1.8,43.2,2022-03-04 10:03:22.685,1
384,8002,0.95,-0.99,-1.72,43.2,2022-03-04 10:03:22.785,1
385,8022,-1.46,0.69,-2.41,43.2,2022-03-04 10:03:22.885,1
386,8042,1.08,0.8,-1.43,43.2,2022-03-04 10:03:22.985,1
387,8064,-1.74,0.65,-2.44,43.2,2022-03-04 10:03:23.093,1
388,8086,-1.27,1.18,1.89,43.6,2022-03-04 10:03:23.196,1
389,8108,-0.64,0.91,1.81,43.6,2022-03-04 10:03:23.291,1
390,8128,1.15,0.89,-1.8,43.6,2022-03-04 10:03:23.390,1
391,8148,1.17,1.13,-1.54,43.6,2022-03-04 10:03:23.489,1
392,8172,1.2,0.53,-2.04,43.6,2022-03-04 10:03:23.598,1
393,8192,-0.77,-0.78,-1.6,43.6,2022-03-04 10:03:23.698,1
394,8212,1.85,-0.92,0.98,43.6,2022-03-04 10:03:23.798,10
395,8232,1.45,-1.04,-1.31,43.6,2022-03-04 10:03:23.897,10
396,8252,1.7,-0.84,2.24,43.6,2022-03-04 10:03:23.996,10
397,8272,1.35,-0.9,-1.4,43.6,2022-03-04 10:03:24.096,10
398,8292,0.99,-0.59,-1.11,43.6,2022-03-04 10:03:24.195,10
399,8316,0.81,-0.67,1.24,45.7,2022-03-04 10:03:24.294,10
400,8336,-0.98,-1.11,-3.19,45.7,2022-03-04 10:03:24.393,10
401,8356,-1.35,-0.76,-1.06,45.7,2022-03-04 10:03:24.492,10
402,8378,0.71,-1.12,1.18,45.7,2022-03-04 10:03:24.593,10
403,8398,0.78,-0.88,-1.19,45.7,2022-03-04 10:03:24.692,10
404,8420,0.54,-0.86,-0.76,45.7,2022-03-04 10:03:24.799,10
405,8440,1.3,-0.9,-1.44,45.7,2022-03-04 10:03:24.898,10
406,8458,-1.14,-0.83,-1.22,45.7,2022-03-04 10:03:24.988,10
407,8480,0.66,-0.81,-1.16,45.7,2022-03-04 10:03:25.098,10
408,8504,1.7,-0.98,0.84,47.2,2022-03-04 10:03:25.196,10
409,8524,1.33,-1.23,-0.99,47.2,2022-03-04 10:03:25.295,10
410,8544,0.65,-0.92,-0.65,47.2,2022-03-04 10:03:25.395,10
411,8564,0.88,-0.94,0.9,47.2,2022-03-04 10:03:25.496,10
412,8586,1.32,-0.76,0.39,47.2,2022-03-04 10:03:25.594,10
413,8606,1.12,-0.91,-0.91,47.2,2022-03-04 10:03:25.695,10
414,8626,0.9,-1.02,-1.19,47.2,2022-03-04 10:03:25.794,10
415,8646,-1.02,-0.72,-1.19,47.2,2022-03-04 10:03:25.892,10
416,8666,0.82,-1.14,1.18,47.2,2022-03-04 10:03:25.992,10
417,8686,0.53,-0.64,-0.94,47.2,2022-03-04 10:03:26.092,10
418,8710,1.17,-0.59,-0.97,47.2,2022-03-04 10:03:26.191,10
419,8732,0.92,-0.74,0.8,46.8,2022-03-04 10:03:26.298,10
420,8752,-1.09,-0.76,-0.76,46.8,2022-03-04 10:03:26.397,10
421,8772,0.94,-1.05,-2.04,46.8,2022-03-04 10:03:26.497,4
422,8794,1.0,-1.02,-1.47,46.8,2022-03-04 10:03:26.598,4
423,8814,1.47,-1.11,-1.14,46.8,2022-03-04 10:03:26.695,4
424,8834,1.02,-1.12,-1.23,46.8,2022-03-04 10:03:26.795,4
425,8854,0.61,-1.15,-1.02,46.8,2022-03-04 10:03:26.894,4
426,8874,0.89,-1.08,-1.12,46.8,2022-03-04 10:03:26.995,4
427,8894,1.25,-1.48,-0.89,46.8,2022-03-04 10:03:27.096,4
428,8918,0.55,-1.35,1.7,46.8,2022-03-04 10:03:27.192,4
429,8938,-0.61,-1.26,1.31,46.4,2022-03-04 10:03:27.291,4
430,8958,1.02,-1.27,-0.98,46.4,2022-03-04 10:03:27.393,4
431,8980,0.65,-1.15,-0.89,46.4,2022-03-04 10:03:27.499,4
432,9002,1.04,-1.42,-0.92,46.4,2022-03-04 10:03:27.598,4
433,9022,0.6,-1.4,-0.82,46.4,2022-03-04 10:03:27.698,4
434,9042,0.57,-1.21,1.05,46.4,2022-03-04 10:03:27.797,4
435,9062,0.41,-1.22,-0.62,46.4,2022-03-04 10:03:27.897,4
436,9082,0.37,-1.29,-0.92,46.4,2022-03-04 10:03:27.995,4
437,9102,0.97,-1.46,-0.56,46.4,2022-03-04 10:03:28.095,4
438,9126,0.49,-1.29,-0.81,46.4,2022-03-04 10:03:28.194,4
439,9146,1.08,-1.32,-0.78,45.4,2022-03-04 10:03:28.294,4
440,9166,0.96,-1.41,-0.83,45.4,2022-03-04 10:03:28.393,4
441,9186,0.93,-1.35,-0.55,45.4,2022-03-04 10:03:28.492,4
442,9208,-0.68,-1.38,-0.8,45.4,2022-03-04 10:03:28.592,4
443,9228,0.95,-1.24,-0.64,45.4,2022-03-04 10:03:28.691,4
444,9250,0.54,-1.22,1.05,45.4,2022-03-04 10:03:28.799,4
445,9268,0.48,-1.64,-0.7,45.4,2022-03-04 10:03:28.890,4
446,9290,1.0,-1.62,-0.59,45.4,2022-03-04 10:03:28.998,4
447,9308,0.98,-1.88,-0.91,45.4,2022-03-04 10:03:29.090,4
448,9334,0.86,-1.69,-0.74,45.4,2022-03-04 10:03:29.197,4
449,9354,0.84,-1.69,-1.17,41.0,2022-03-04 10:03:29.298,4
450,9374,0.95,-1.72,-0.47,41.0,2022-03-04 10:03:29.395,4
451,9394,0.8,-1.79,-0.53,41.0,2022-03-04 10:03:29.494,4
452,9416,1.27,-1.56,-0.51,41.0,2022-03-04 10:03:29.594,4
453,9436,1.05,-1.59,-0.56,41.0,2022-03-04 10:03:29.693,4
454,9456,1.08,-1.65,0.77,41.0,2022-03-04 10:03:29.792,4
455,9476,1.04,-1.49,0.79,41.0,2022-03-04 10:03:29.894,4
456,9496,0.9,-1.71,0.74,41.0,2022-03-04 10:03:29.991,4
457,9516,1.54,-1.58,1.08,41.0,2022-03-04 10:03:30.091,4
458,9542,0.95,-1.54,0.83,41.0,2022-03-04 10:03:30.199,4
459,9562,1.52,-1.5,0.61,36.4,2022-03-04 10:03:30.299,4
460,9582,1.2,-1.58,-0.93,36.4,2022-03-04 10:03:30.398,4
461,9602,1.38,-1.64,-0.84,36.4,2022-03-04 10:03:30.497,4
462,9624,1.49,-1.54,-0.92,36.4,2022-03-04 10:03:30.596,4
463,9644,1.49,-1.71,0.49,36.4,2022-03-04 10:03:30.695,4
464,9664,1.83,-1.57,-0.82,36.4,2022-03-04 10:03:30.795,4
465,9684,1.59,-1.34,0.54,36.4,2022-03-04 10:03:30.895,4
466,9704,1.67,-1.2,0.84,36.4,2022-03-04 10:03:30.993,7
467,9724,1.92,-1.07,-0.5,36.4,2022-03-04 10:03:31.093,7
468,9748,1.58,-1.26,-0.61,36.4,2022-03-04 10:03:31.193,7
469,9768,1.58,-0.89,-0.74,29.9,2022-03-04 10:03:31.295,7
470,9788,1.38,-0.82,-0.62,29.9,2022-03-04 10:03:31.392,7
471,9810,1.26,-0.78,-0.82,29.9,2022-03-04 10:03:31.499,7
472,9832,0.83,-0.53,0.84,29.9,2022-03-04 10:03:31.599,7
473,9852,1.01,-0.53,0.7,29.9,2022-03-04 10:03:31.698,7
474,9872,0.86,-0.58,-0.55,29.9,2022-03-04 10:03:31.798,7
475,9892,0.68,-0.48,-0.9,29.9,2022-03-04 10:03:31.897,7
476,9912,0.7,-0.54,0.42,29.9,2022-03-04 10:03:31.996,7
477,9932,-0.48,-0.54,-0.5,29.9,2022-03-04 10:03:32.096,7
478,9950,-0.71,-0.45,-0.92,29.9,2022-03-04 10:03:32.190,7
479,9976,-0.7,-0.32,-0.81,29.9,2022-03-04 10:03:32.294,7
480,9996,-1.16,-0.46,-0.61,25.2,2022-03-04 10:03:32.394,7
481,10016,-2.04,-0.68,1.1,25.2,2022-03-04 10:03:32.492,7
482,10038,-2.39,-0.71,0.76,25.2,2022-03-04 10:03:32.591,7
483,10058,-2.38,-0.67,0.7,25.2,2022-03-04 10:03:32.691,7
484,10078,-2.39,-0.67,-0.38,25.2,2022-03-04 10:03:32.790,7
485,10100,-2.69,-0.76,-0.59,25.2,2022-03-04 10:03:32.899,7
486,10120,-2.33,-0.56,1.04,25.2,2022-03-04 10:03:32.998,7
487,10140,-2.72,-0.45,0.49,25.2,2022-03-04 10:03:33.098,7
488,10164,-2.91,-0.34,0.27,25.2,2022-03-04 10:03:33.197,7
489,10184,-2.98,-0.59,0.46,21.2,2022-03-04 10:03:33.296,7
490,10204,-3.51,-0.8,-0.43,21.2,2022-03-04 10:03:33.395,7
491,10224,-3.17,-0.75,0.8,21.2,2022-03-04 10:03:33.495,7
492,10246,-3.04,-0.68,-0.86,21.2,2022-03-04 10:03:33.594,7
493,10266,-3.28,-0.57,0.62,21.2,2022-03-04 10:03:33.693,7
494,10286,-3.79,-0.47,0.57,21.2,2022-03-04 10:03:33.792,7
495,10306,-3.87,-0.53,0.31,21.2,2022-03-04 10:03:33.891,7
496,10326,-3.91,-0.67,-0.44,21.2,2022-03-04 10:03:33.991,7
497,10346,-3.57,-0.65,-0.62,21.2,2022-03-04 10:03:34.092,7
498,10368,-3.71,-0.63,0.43,21.2,2022-03-04 10:03:34.199,7
499,10390,-3.56,-0.64,0.6,21.2,2022-03-04 10:03:34.292,7
500,10412,-3.52,-0.64,0.54,17.3,2022-03-04 10:03:34.398,7
501,10432,-3.74,-0.71,0.86,17.3,2022-03-04 10:03:34.498,7
502,10454,-3.57,-0.77,-0.46,17.3,2022-03-04 10:03:34.597,7
503,10474,-3.97,-0.76,-0.87,17.3,2022-03-04 10:03:34.696,7
504,10494,-3.3,-1.03,0.86,17.3,2022-03-04 10:03:34.795,7
505,10514,-3.23,-0.88,0.47,17.3,2022-03-04 10:03:34.896,7
506,10534,-3.36,-0.82,-0.4,17.3,2022-03-04 10:03:34.994,7
507,10554,-3.5,-0.82,0.59,17.3,2022-03-04 10:03:35.093,7
508,10578,-3.7,-1.03,-0.88,17.3,2022-03-04 10:03:35.193,7
509,10598,-2.98,-0.68,0.52,17.3,2022-03-04 10:03:35.291,7
510,10618,-3.18,-0.85,0.77,17.3,2022-03-04 10:03:35.391,7
511,10638,-3.22,-0.85,-0.6,17.3,2022-03-04 10:03:35.491,7
512,10660,-2.75,-0.71,0.37,17.3,2022-03-04 10:03:35.591,7
513,10682,-2.73,-0.88,0.47,17.3,2022-03-04 10:03:35.699,7
514,10702,-2.7,-0.9,-0.34,17.3,2022-03-04 10:03:35.798,7
515,10722,-2.52,-1.1,0.38,17.3,2022-03-04 10:03:35.897,7
516,10742,-2.68,-1.13,-0.75,17.3,2022-03-04 10:03:35.996,7
517,10762,-3.25,-1.17,-0.52,17.3,2022-03-04 10:03:36.097,7
518,10786,-3.0,-1.35,-0.81,20.9,2022-03-04 10:03:36.195,7
519,10806,-3.22,-1.29,-0.68,20.9,2022-03-04 10:03:36.294,7
520,10826,-2.83,-1.36,-0.91,20.9,2022-03-04 10:03:36.394,7
521,10846,-2.9,-1.32,0.66,20.9,2022-03-04 10:03:36.492,7
522,10868,-3.02,-1.37,0.87,20.9,2022-03-04 10:03:36.592,7
523,10888,-3.15,-1.56,-0.81,20.9,2022-03-04 10:03:36.690,7
524,10908,-3.24,-1.57,-0.85,20.9,2022-03-04 10:03:36.790,7
525,10928,-3.58,-1.73,0.92,20.9,2022-03-04 10:03:36.889,7
526,10950,-3.2,-1.73,0.6,20.9,2022-03-04 10:03:36.999,7
527,10968,-3.26,-1.81,-0.77,20.9,2022-03-04 10:03:37.088,7
528,10994,-3.47,-1.9,0.68,22.0,2022-03-04 10:03:37.198,7
529,11014,-3.39,-2.12,-0.56,22.0,2022-03-04 10:03:37.296,7
530,11034,-3.56,-2.19,-1.04,22.0,2022-03-04 10:03:37.397,7
531,11054,-4.45,-2.01,0.65,22.0,2022-03-04 10:03:37.495,7
532,11076,-4.14,-2.15,0.8,22.0,2022-03-04 10:03:37.594,7
533,11096,-4.27,-2.39,1.26,22.0,2022-03-04 10:03:37.694,7
534,11116,-4.25,-2.08,0.7,22.0,2022-03-04 10:03:37.793,7
535,11136,-4.18,-2.12,0.63,22.0,2022-03-04 10:03:37.892,7
536,11156,-3.78,-2.32,-1.38,22.0,2022-03-04 10:03:37.993,7
537,11176,-4.81,-2.13,-0.94,22.0,2022-03-04 10:03:38.090,7
538,11200,-4.48,-2.39,0.46,24.1,2022-03-04 10:03:38.190,7
539,11220,-3.79,-2.25,1.28,24.1,2022-03-04 10:03:38.289,7
540,11240,-4.11,-2.14,-0.48,24.1,2022-03-04 10:03:38.388,7
541,11262,-3.88,-2.35,0.98,24.1,2022-03-04 10:03:38.498,7
542,11284,-4.57,-1.97,1.31,24.1,2022-03-04 10:03:38.598,7
543,11304,-3.94,-1.86,0.61,24.1,2022-03-04 10:03:38.697,7
544,11324,-2.9,-1.87,1.37,24.1,2022-03-04 10:03:38.795,7
545,11344,-2.9,-1.56,1.32,24.1,2022-03-04 10:03:38.899,7
546,11364,-2.73,-1.52,1.05,24.1,2022-03-04 10:03:38.994,7
547,11384,-1.74,-1.6,0.64,24.1,2022-03-04 10:03:39.094,7
548,11408,-1.82,-1.2,0.99,28.1,2022-03-04 10:03:39.192,7
549,11428,-1.96,-1.11,0.72,28.1,2022-03-04 10:03:39.292,7
550,11448,-1.47,-1.29,1.03,28.1,2022-03-04 10:03:39.391,7
551,11468,-1.15,-0.99,-0.62,28.1,2022-03-04 10:03:39.490,7
552,11490,-0.74,-0.99,-0.65,28.1,2022-03-04 10:03:39.589,7
553,11510,0.55,-1.0,0.65,28.1,2022-03-04 10:03:39.689,7
554,11530,0.76,-0.81,0.63,28.1,2022-03-04 10:03:39.788,7
555,11552,0.62,-0.49,0.88,28.1,2022-03-04 10:03:39.899,7
556,11572,0.78,-0.59,0.78,28.1,2022-03-04 10:03:39.996,7
557,11592,0.78,-0.35,-1.37,28.1,2022-03-04 10:03:40.096,7
558,11616,0.43,-0.51,0.47,28.1,2022-03-04 10:03:40.195,1
559,11636,1.1,-0.49,-0.71,27.0,2022-03-04 10:03:40.295,1
560,11656,1.11,-0.27,0.75,27.0,2022-03-04 10:03:40.394,1
561,11676,1.33,-0.51,-0.92,27.0,2022-03-04 10:03:40.494,1
562,11698,1.74,-0.28,-0.58,27.0,2022-03-04 10:03:40.592,1
563,11718,1.52,-0.52,1.22,27.0,2022-03-04 10:03:40.691,1
564,11738,1.7,-0.35,0.84,27.0,2022-03-04 10:03:40.791,1
565,11758,1.84,-0.5,-1.1,27.0,2022-03-04 10:03:40.890,1
566,11778,1.61,-0.29,0.4,27.0,2022-03-04 10:03:40.989,1
567,11800,1.29,-0.37,1.3,27.0,2022-03-04 10:03:41.099,1
568,11824,1.14,-0.52,-0.45,29.2,2022-03-04 10:03:41.198,1
569,11844,1.94,-0.76,0.62,29.2,2022-03-04 10:03:41.298,1
570,11864,1.52,-0.5,0.99,29.2,2022-03-04 10:03:41.398,1
571,11884,1.34,-0.46,-0.67,29.2,2022-03-04 10:03:41.495,1
572,11906,1.12,-0.55,-1.22,29.2,2022-03-04 10:03:41.594,1
573,11926,1.85,-0.84,1.42,29.2,2022-03-04 10:03:41.694,1
574,11946,1.24,-0.45,-0.65,29.2,2022-03-04 10:03:41.793,1
575,11966,1.34,-0.65,1.21,29.2,2022-03-04 10:03:41.892,1
576,11986,1.67,-0.91,-0.68,29.2,2022-03-04 10:03:41.991,1
577,12006,1.49,-0.62,1.66,29.2,2022-03-04 10:03:42.091,1
578,12030,1.68,-0.53,0.81,31.0,2022-03-04 10:03:42.190,1
579,12050,1.1,-0.58,-0.64,31.0,2022-03-04 10:03:42.289,1
580,12070,1.26,-0.64,-0.69,31.0,2022-03-04 10:03:42.389,1
581,12092,0.96,-0.8,-0.5,31.0,2022-03-04 10:03:42.499,1
582,12114,1.04,-0.68,0.91,31.0,2022-03-04 10:03:42.597,1
583,12134,1.22,-0.66,0.59,31.0,2022-03-04 10:03:42.697,1
584,12154,1.08,-0.74,-0.63,31.0,2022-03-04 10:03:42.797,1
585,12174,0.84,-0.61,0.95,31.0,2022-03-04 10:03:42.897,1
586,12194,0.95,-0.73,-1.21,31.0,2022-03-04 10:03:42.997,1
587,12214,1.05,-0.71,0.73,31.0,2022-03-04 10:03:43.095,1
588,12234,0.82,-0.83,-0.63,31.0,2022-03-04 10:03:43.194,1
589,12258,0.91,-1.57,-0.75,32.8,2022-03-04 10:03:43.292,1
590,12278,1.0,-1.44,0.44,32.8,2022-03-04 10:03:43.391,1
591,12298,0.84,-1.59,-0.82,32.8,2022-03-04 10:03:43.491,1
592,12320,1.35,-1.33,-0.65,32.8,2022-03-04 10:03:43.591,1
593,12342,1.3,-1.39,-0.42,32.8,2022-03-04 10:03:43.699,1
594,12362,1.08,-1.48,-0.35,32.8,2022-03-04 10:03:43.798,1
595,12382,0.8,-1.42,-0.8,32.8,2022-03-04 10:03:43.899,1
596,12402,1.18,-1.32,-0.51,32.8,2022-03-04 10:03:43.998,1
597,12422,0.9,-1.4,0.34,32.8,2022-03-04 10:03:44.097,1
598,12446,0.8,-1.32,-0.32,33.5,2022-03-04 10:03:44.195,1
599,12466,0.93,-1.12,-0.7,33.5,2022-03-04 10:03:44.296,1
600,12486,0.54,-0.38,0.63,33.5,2022-03-04 10:03:44.394,1
601,12506,0.67,-0.49,-0.55,33.5,2022-03-04 10:03:44.493,1
602,12528,0.91,-0.42,0.79,33.5,2022-03-04 10:03:44.592,1
603,12548,0.59,0.37,0.68,33.5,2022-03-04 10:03:44.691,1
604,12568,0.88,0.44,0.6,33.5,2022-03-04 10:03:44.791,1
605,12588,-0.53,0.45,0.87,33.5,2022-03-04 10:03:44.891,1
606,12610,1.04,-0.39,-0.9,33.5,2022-03-04 10:03:44.999,1
607,12630,0.73,-0.3,0.82,33.5,2022-03-04 10:03:45.099,1
608,12654,0.95,-0.35,-0.53,33.5,2022-03-04 10:03:45.198,1
609,12674,-1.15,-0.52,-0.95,33.5,2022-03-04 10:03:45.298,1
610,12694,0.36,-0.31,-1.14,33.5,2022-03-04 10:03:45.396,1
611,12714,1.19,0.56,-0.8,33.5,2022-03-04 10:03:45.498,1
612,12736,0.45,0.24,1.0,33.5,2022-03-04 10:03:45.597,1
613,12756,0.73,-0.25,0.89,33.5,2022-03-04 10:03:45.695,1
614,12776,-0.7,-0.52,-0.52,33.5,2022-03-04 10:03:45.795,1
615,12796,0.56,-0.44,0.79,33.5,2022-03-04 10:03:45.893,1
616,12816,-0.66,-0.46,-0.87,33.5,2022-03-04 10:03:45.992,1
617,12836,0.5,-0.47,0.92,33.5,2022-03-04 10:03:46.094,1
618,12860,-0.52,-0.28,-0.96,34.6,2022-03-04 10:03:46.191,1
619,12880,0.47,-0.33,-0.83,34.6,2022-03-04 10:03:46.290,1
620,12902,-0.99,-0.73,1.47,34.6,2022-03-04 10:03:46.399,1
621,12922,-1.14,-0.44,1.38,34.6,2022-03-04 10:03:46.499,1
622,12944,-0.87,-0.31,-0.93,34.6,2022-03-04 10:03:46.597,1
623,12964,-0.52,-0.43,-1.59,34.6,2022-03-04 10:03:46.697,1
624,12984,-1.07,-0.52,0.96,34.6,2022-03-04 10:03:46.796,1
625,13004,-0.7,-0.66,1.14,34.6,2022-03-04 10:03:46.897,1
626,13024,0.79,-0.38,-1.09,34.6,2022-03-04 10:03:46.997,1
627,13044,0.64,0.58,1.24,34.6,2022-03-04 10:03:47.094,1
628,13064,-1.18,-0.46,1.25,34.6,2022-03-04 10:03:47.194,1
629,13088,-0.9,0.66,0.76,36.0,2022-03-04 10:03:47.294,1
630,13108,2.22,0.55,-1.22,36.0,2022-03-04 10:03:47.391,1
631,13128,0.9,0.74,1.0,36.0,2022-03-04 10:03:47.490,1
632,13150,-1.09,-0.48,1.02,36.0,2022-03-04 10:03:47.590,1
633,13172,-1.16,-0.46,-0.91,36.0,2022-03-04 10:03:47.699,1
634,13190,0.47,-0.71,0.78,36.0,2022-03-04 10:03:47.788,1
635,13212,0.99,-0.44,1.63,36.0,2022-03-04 10:03:47.898,1
636,13230,0.71,-0.52,-0.97,36.0,2022-03-04 10:03:47.997,1
637,13252,1.58,-0.58,-1.13,36.0,2022-03-04 10:03:48.097,1
638,13276,0.57,-1.13,-0.62,36.7,2022-03-04 10:03:48.196,1
639,13296,0.98,-1.16,-0.85,36.7,2022-03-04 10:03:48.295,1
640,13316,-0.73,-1.22,-1.1,36.7,2022-03-04 10:03:48.395,1
641,13336,0.75,-1.18,-0.74,36.7,2022-03-04 10:03:48.494,1
642,13358,-0.65,-1.23,0.7,36.7,2022-03-04 10:03:48.595,1
643,13378,0.78,-1.23,1.06,36.7,2022-03-04 10:03:48.692,1
644,13398,1.0,-1.1,0.96,36.7,2022-03-04 10:03:48.793,1
645,13418,0.96,-1.01,-0.89,36.7,2022-03-04 10:03:48.890,1
646,13438,0.86,-1.24,0.73,36.7,2022-03-04 10:03:48.990,1
647,13458,1.08,-1.26,0.65,36.7,2022-03-04 10:03:49.090,1
648,13484,0.32,-1.16,-1.08,38.9,2022-03-04 10:03:49.198,1
649,13504,0.95,-0.79,-0.67,38.9,2022-03-04 10:03:49.297,1
650,13524,0.91,-0.53,0.49,38.9,2022-03-04 10:03:49.397,1
651,13544,-0.73,0.25,-1.18,38.9,2022-03-04 10:03:49.496,1
652,13566,0.97,-0.89,-0.81,38.9,2022-03-04 10:03:49.595,1
653,13586,1.08,-0.57,1.11,38.9,2022-03-04 10:03:49.695,1
654,13606,0.38,-0.69,0.77,38.9,2022-03-04 10:03:49.794,1
655,13626,0.66,-0.56,-0.73,38.9,2022-03-04 10:03:49.894,1
656,13646,0.86,-0.43,-0.65,38.9,2022-03-04 10:03:49.994,1
657,13666,0.42,-0.42,-0.91,38.9,2022-03-04 10:03:50.094,1
658,13686,0.64,-0.42,0.88,38.9,2022-03-04 10:03:50.193,1
659,13710,1.0,-0.66,-0.76,38.9,2022-03-04 10:03:50.291,1
660,13732,-0.88,-0.6,-0.63,38.9,2022-03-04 10:03:50.399,1
661,13750,0.36,-0.5,-0.79,38.9,2022-03-04 10:03:50.489,1
662,13774,0.75,-0.63,0.87,38.9,2022-03-04 10:03:50.598,1
663,13794,0.82,0.53,-0.87,38.9,2022-03-04 10:03:50.697,1
664,13814,0.96,-0.53,1.64,38.9,2022-03-04 10:03:50.797,1
665,13834,0.8,-0.58,-1.43,38.9,2022-03-04 10:03:50.896,1
666,13854,0.51,-0.49,-1.2,38.9,2022-03-04 10:03:50.995,1
667,13872,1.24,-0.75,-1.15,38.9,2022-03-04 10:03:51.084,1
668,13898,0.9,-0.57,-1.09,39.6,2022-03-04 10:03:51.194,1
669,13918,0.83,-0.5,0.87,39.6,2022-03-04 10:03:51.293,1
670,13938,0.83,-0.43,-0.55,39.6,2022-03-04 10:03:51.393,1
671,13958,-0.48,-0.35,0.66,39.6,2022-03-04 10:03:51.491,1
672,13980,-0.78,-0.47,-0.72,39.6,2022-03-04 10:03:51.591,1
673,14000,0.72,-0.33,-1.2,39.6,2022-03-04 10:03:51.691,1
674,14020,0.85,-0.44,0.7,39.6,2022-03-04 10:03:51.792,1
675,14042,-1.21,-0.46,-0.76,39.6,2022-03-04 10:03:51.898,1
676,14060,0.76,-0.69,-1.22,39.6,2022-03-04 10:03:51.988,1
677,14082,-1.51,-0.41,-0.9,39.6,2022-03-04 10:03:52.097,1
678,14106,1.27,0.46,-0.53,41.8,2022-03-04 10:03:52.196,1
679,14126,0.22,0.38,0.8,41.8,2022-03-04 10:03:52.295,1
680,14146,0.54,-0.53,0.98,41.8,2022-03-04 10:03:52.395,1
681,14166,-0.49,0.5,-0.57,41.8,2022-03-04 10:03:52.494,1
682,14188,0.47,-0.54,-0.64,41.8,2022-03-04 10:03:52.593,1
683,14208,0.64,-0.75,-0.77,41.8,2022-03-04 10:03:52.692,1
684,14228,0.88,-0.46,-1.47,41.8,2022-03-04 10:03:52.794,1
685,14248,0.54,-0.57,-1.13,41.8,2022-03-04 10:03:52.891,10
686,14268,0.28,-0.52,-0.81,41.8,2022-03-04 10:03:52.992,10
687,14288,0.48,-0.63,-1.2,41.8,2022-03-04 10:03:53.090,10
688,14314,0.74,-0.63,-1.05,43.2,2022-03-04 10:03:53.198,10
689,14332,0.31,-0.52,0.75,43.2,2022-03-04 10:03:53.288,10
690,14354,0.38,-0.52,-0.75,43.2,2022-03-04 10:03:53.397,10
691,14374,0.38,-0.63,-1.98,43.2,2022-03-04 10:03:53.496,10
692,14396,0.55,-0.6,-1.32,43.2,2022-03-04 10:03:53.597,10
693,14416,0.73,-0.7,0.61,43.2,2022-03-04 10:03:53.695,10
694,14436,0.66,-0.28,0.92,43.2,2022-03-04 10:03:53.796,10
695,14456,0.52,-0.64,0.74,43.2,2022-03-04 10:03:53.893,10
696,14476,1.07,-0.66,-0.84,43.2,2022-03-04 10:03:53.994,10
697,14496,0.66,-0.6,0.42,43.2,2022-03-04 10:03:54.094,10
698,14518,0.57,-0.71,-0.78,43.9,2022-03-04 10:03:54.199,10
699,14540,0.37,-0.73,-0.5,43.9,2022-03-04 10:03:54.290,10
700,14562,0.59,-0.68,-0.62,43.9,2022-03-04 10:03:54.399,10
701,14582,0.56,-0.82,-0.77,43.9,2022-03-04 10:03:54.499,10
702,14604,0.82,-0.74,-0.53,43.9,2022-03-04 10:03:54.598,10
703,14624,0.5,-0.65,0.79,43.9,2022-03-04 10:03:54.698,10
704,14644,-0.85,-0.81,-0.55,43.9,2022-03-04 10:03:54.796,10
705,14662,0.83,-0.96,0.82,43.9,2022-03-04 10:03:54.886,10
706,14684,-1.19,-0.82,0.64,43.9,2022-03-04 10:03:54.995,10
707,14704,-0.46,-0.84,-0.69,43.9,2022-03-04 10:03:55.094,10
708,14728,-0.58,-0.77,-0.69,44.3,2022-03-04 10:03:55.199,10
709,14748,-0.74,-0.64,-0.78,44.3,2022-03-04 10:03:55.293,10
710,14768,0.53,-0.78,0.52,44.3,2022-03-04 10:03:55.392,10
711,14788,-0.66,-0.64,0.83,44.3,2022-03-04 10:03:55.491,10
712,14810,-0.92,-0.69,1.43,44.3,2022-03-04 10:03:55.591,10
713,14830,-0.76,-0.73,0.75,44.3,2022-03-04 10:03:55.690,10
714,14850,-0.7,-0.74,-0.52,44.3,2022-03-04 10:03:55.790,10
715,14872,0.51,-0.89,-0.56,44.3,2022-03-04 10:03:55.898,10
716,14892,0.78,-0.65,-1.1,44.3,2022-03-04 10:03:55.998,10
717,14912,-0.83,-0.49,-1.14,44.3,2022-03-04 10:03:56.098,10
718,14936,1.03,-0.36,-0.9,44.3,2022-03-04 10:03:56.196,10
719,14956,-0.37,-0.47,0.65,43.9,2022-03-04 10:03:56.297,10
720,14974,-0.41,-0.47,0.31,43.9,2022-03-04 10:03:56.385,10
721,14996,-0.94,-0.57,-0.35,43.9,2022-03-04 10:03:56.494,10
722,15018,0.71,-0.44,0.51,43.9,2022-03-04 10:03:56.593,10
723,15038,-0.51,-0.44,-0.74,43.9,2022-03-04 10:03:56.693,10
724,15058,0.85,-0.55,-0.87,43.9,2022-03-04 10:03:56.792,10
725,15078,0.51,-0.31,-0.62,43.9,2022-03-04 10:03:56.891,10
726,15098,0.51,0.33,-0.79,43.9,2022-03-04 10:03:56.991,10
727,15118,0.97,-0.32,-1.21,43.9,2022-03-04 10:03:57.090,10
728,15144,-0.68,0.47,-0.8,43.9,2022-03-04 10:03:57.199,10
729,15164,-0.3,0.54,-0.81,42.8,2022-03-04 10:03:57.298,10
730,15184,-0.6,0.59,-1.02,42.8,2022-03-04 10:03:57.397,10
731,15204,0.79,0.43,-0.62,42.8,2022-03-04 10:03:57.497,10
732,15226,0.53,0.41,-0.78,42.8,2022-03-04 10:03:57.596,10
733,15246,-0.39,0.3,0.42,42.8,2022-03-04 10:03:57.695,10
734,15266,0.53,-0.73,0.66,42.8,2022-03-04 10:03:57.794,10
735,15286,-0.51,-0.85,0.82,42.8,2022-03-04 10:03:57.894,4
736,15306,0.76,-0.75,-0.84,42.8,2022-03-04 10:03:57.994,4
737,15326,-0.78,-0.78,0.58,42.8,2022-03-04 10:03:58.092,4
738,15350,0.74,-0.8,0.58,42.8,2022-03-04 10:03:58.191,4
739,15370,0.73,-1.07,1.2,42.8,2022-03-04 10:03:58.290,4
740,15390,0.53,-1.45,-1.25,42.8,2022-03-04 10:03:58.391,4
741,15412,0.79,-1.32,-1.3,42.8,2022-03-04 10:03:58.499,4
742,15434,-0.53,-1.44,1.07,42.8,2022-03-04 10:03:58.599,4
743,15454,1.17,-1.28,1.64,42.8,2022-03-04 10:03:58.697,4
744,15474,-0.54,-1.32,-1.27,42.8,2022-03-04 10:03:58.797,4
745,15494,0.59,-1.62,1.01,42.8,2022-03-04 10:03:58.897,4
746,15514,0.57,-1.49,-1.12,42.8,2022-03-04 10:03:58.996,4
747,15534,0.55,-1.76,-1.14,42.8,2022-03-04 10:03:59.095,4
748,15555,0.57,-1.76,-0.4,42.8,2022-03-04 10:03:59.198,4
749,15578,1.02,-1.84,1.03,42.8,2022-03-04 10:03:59.293,4
750,15598,0.58,-1.64,1.06,42.8,2022-03-04 10:03:59.394,4
751,15618,0.9,-1.71,-0.78,42.8,2022-03-04 10:03:59.492,4
752,15640,0.63,-1.62,0.7,42.8,2022-03-04 10:03:59.591,4
753,15660,0.46,-1.79,-0.48,42.8,2022-03-04 10:03:59.691,4
754,15680,0.53,-1.73,-0.83,42.8,2022-03-04 10:03:59.791,4
755,15702,0.48,-1.65,0.51,42.8,2022-03-04 10:03:59.899,4
756,15722,0.6,-1.72,-0.59,42.8,2022-03-04 10:03:59.998,4
757,15742,0.42,-1.65,0.88,42.8,2022-03-04 10:04:00.099,4
758,15762,0.31,-1.55,-0.93,42.8,2022-03-04 10:04:00.196,4
759,15786,0.75,-1.75,0.52,42.8,2022-03-04 10:04:00.296,4
760,15806,0.74,-1.55,-0.68,42.8,2022-03-04 10:04:00.395,4
761,15826,0.44,-1.58,0.58,42.8,2022-03-04 10:04:00.494,4
762,15848,-0.48,-1.57,-0.86,42.8,2022-03-04 10:04:00.594,4
763,15868,0.66,-1.62,-0.59,42.8,2022-03-04 10:04:00.693,4
764,15888,0.49,-1.56,0.62,42.8,2022-03-04 10:04:00.792,4
765,15908,0.42,-1.48,-0.51,42.8,2022-03-04 10:04:00.891,4
766,15928,0.77,-1.53,-0.86,42.8,2022-03-04 10:04:00.991,4
767,15948,0.68,-1.62,0.53,42.8,2022-03-04 10:04:01.090,4
768,15974,0.59,-1.53,-1.0,42.8,2022-03-04 10:04:01.199,4
769,15994,0.42,-1.56,-0.85,42.5,2022-03-04 10:04:01.298,4
770,16014,0.49,-1.38,-0.62,42.5,2022-03-04 10:04:01.397,4
771,16034,0.6,-1.31,-0.58,42.5,2022-03-04 10:04:01.497,4
772,16056,0.4,-1.38,0.78,42.5,2022-03-04 10:04:01.596,4
773,16076,0.51,-1.3,-1.12,42.5,2022-03-04 10:04:01.697,4
774,16096,0.48,-1.44,-1.18,42.5,2022-03-04 10:04:01.794,4
775,16116,0.48,-1.48,0.82,42.5,2022-03-04 10:04:01.894,4
776,16136,0.63,-1.43,0.79,42.5,2022-03-04 10:04:01.993,4
777,16156,0.52,-1.08,-1.43,42.5,2022-03-04 10:04:02.094,4
778,16176,0.32,-0.97,-0.97,42.5,2022-03-04 10:04:02.193,4
779,16200,0.43,-0.95,0.59,42.5,2022-03-04 10:04:02.292,4
780,16220,0.66,-0.94,0.64,40.7,2022-03-04 10:04:02.390,4
781,16240,0.55,-0.84,-0.96,40.7,2022-03-04 10:04:02.491,4
782,16264,0.46,-1.1,-1.48,40.7,2022-03-04 10:04:02.599,4
783,16284,0.42,-0.83,0.64,40.7,2022-03-04 10:04:02.698,4
784,16304,0.74,-1.24,0.5,40.7,2022-03-04 10:04:02.797,4
785,16324,0.48,-1.44,-0.75,40.7,2022-03-04 10:04:02.896,4
786,16344,0.67,-1.38,-0.94,40.7,2022-03-04 10:04:02.996,4
787,16362,0.51,-1.35,-0.61,40.7,2022-03-04 10:04:03.091,4
788,16388,0.6,-1.36,0.5,40.7,2022-03-04 10:04:03.194,4
789,16408,0.63,-1.63,0.56,38.2,2022-03-04 10:04:03.294,4
790,16428,0.53,-1.45,-0.31,38.2,2022-03-04 10:04:03.393,4
791,16448,0.33,-1.52,-0.98,38.2,2022-03-04 10:04:03.492,4
792,16470,0.5,-1.61,-0.71,38.2,2022-03-04 10:04:03.591,4
793,16490,0.43,-1.55,0.66,38.2,2022-03-04 10:04:03.690,4
794,16510,0.55,-1.64,0.59,38.2,2022-03-04 10:04:03.790,4
795,16530,0.6,-1.54,-0.84,38.2,2022-03-04 10:04:03.889,4
796,16550,0.24,-1.48,-0.82,38.2,2022-03-04 10:04:03.989,4
797,16570,0.31,-1.47,-0.51,38.2,2022-03-04 10:04:04.088,4
798,16596,0.39,-1.47,0.41,38.2,2022-03-04 10:04:04.199,4
799,16616,0.57,-1.39,0.55,34.6,2022-03-04 10:04:04.296,4
800,16636,0.24,-1.16,-0.49,34.6,2022-03-04 10:04:04.396,4
801,16656,-0.3,-1.03,-0.55,34.6,2022-03-04 10:04:04.495,4
802,16678,0.42,-1.15,-0.43,34.6,2022-03-04 10:04:04.594,4
803,16698,0.34,-1.02,-0.48,34.6,2022-03-04 10:04:04.693,4
804,16718,0.25,-1.05,-0.49,34.6,2022-03-04 10:04:04.793,4
805,16738,0.39,-1.2,-0.53,34.6,2022-03-04 10:04:04.892,4
806,16758,0.36,-1.21,0.37,34.6,2022-03-04 10:04:04.991,4
807,16778,0.51,-1.23,-0.39,34.6,2022-03-04 10:04:05.091,4
808,16802,0.46,-1.29,-0.24,34.6,2022-03-04 10:04:05.190,4
809,16824,0.27,-1.2,-0.29,28.8,2022-03-04 10:04:05.299,4
810,16844,0.49,-1.25,-0.28,28.8,2022-03-04 10:04:05.399,4
811,16862,0.46,-1.19,0.32,28.8,2022-03-04 10:04:05.487,4
812,16886,0.3,-1.18,-0.54,28.8,2022-03-04 10:04:05.597,4
813,16906,0.27,-1.26,-0.55,28.8,2022-03-04 10:04:05.699,4
814,16926,-0.2,-1.11,-0.58,28.8,2022-03-04 10:04:05.795,4
815,16946,0.33,-1.08,0.37,28.8,2022-03-04 10:04:05.894,4
816,16966,0.29,-1.09,0.31,28.8,2022-03-04 10:04:05.993,4
817,16986,0.31,-1.07,-0.37,28.8,2022-03-04 10:04:06.094,4
818,17010,0.15,-0.95,-0.36,28.8,2022-03-04 10:04:06.192,4
819,17030,0.28,-0.91,-0.23,23.8,2022-03-04 10:04:06.291,4
820,17050,0.19,-0.92,-0.33,23.8,2022-03-04 10:04:06.391,4
821,17070,0.24,-0.87,-0.32,23.8,2022-03-04 10:04:06.490,4
822,17092,0.12,-0.87,-0.27,23.8,2022-03-04 10:04:06.589,4
823,17112,-0.23,-0.59,-0.34,23.8,2022-03-04 10:04:06.690,4
824,17134,0.18,-0.49,-0.25,23.8,2022-03-04 10:04:06.799,4
825,17152,0.19,-0.43,-0.18,23.8,2022-03-04 10:04:06.887,4
826,17174,-0.18,-0.39,-0.2,23.8,2022-03-04 10:04:06.998,4
827,17194,-0.18,-0.12,-0.21,23.8,2022-03-04 10:04:07.096,4
828,17214,-0.22,0.54,-0.24,23.8,2022-03-04 10:04:07.195,4
829,17238,-0.19,1.23,0.29,23.8,2022-03-04 10:04:07.295,4
830,17258,-0.33,1.46,-0.18,9.0,2022-03-04 10:04:07.393,4
831,17278,-0.28,1.59,-0.28,9.0,2022-03-04 10:04:07.493,4
832,17300,-0.32,1.64,-0.31,9.0,2022-03-04 10:04:07.592,4
833,17320,-0.37,1.39,-0.26,9.0,2022-03-04 10:04:07.692,4
834,17340,-0.28,1.12,-0.24,9.0,2022-03-04 10:04:07.791,4
835,17362,-0.33,0.96,-0.2,9.0,2022-03-04 10:04:07.899,4
836,17380,-0.36,1.17,-0.17,9.0,2022-03-04 10:04:07.989,4
837,17402,-0.26,1.19,-0.23,9.0,2022-03-04 10:04:08.099,4
838,17422,-0.24,1.07,-0.23,9.0,2022-03-04 10:04:08.198,4
839,17446,-0.26,0.78,-0.25,9.0,2022-03-04 10:04:08.297,4
840,17466,-0.24,0.8,-0.3,1.4,2022-03-04 10:04:08.398,4
841,17486,-0.27,0.79,-0.26,1.4,2022-03-04 10:04:08.497,4
842,17508,-0.21,0.6,-0.3,1.4,2022-03-04 10:04:08.596,4
843,17528,-0.27,0.62,-0.44,1.4,2022-03-04 10:04:08.694,4
844,17548,-0.12,0.55,-0.29,1.4,2022-03-04 10:04:08.793,4
845,17568,-0.19,0.54,-0.26,1.4,2022-03-04 10:04:08.892,4
846,17588,-0.22,0.48,-0.32,1.4,2022-03-04 10:04:08.991,4
847,17608,-0.23,0.45,-0.3,1.4,2022-03-04 10:04:09.090,4
848,17632,-0.35,0.78,-0.25,1.4,2022-03-04 10:04:09.190,4
849,17652,-0.74,0.68,-0.44,1.4,2022-03-04 10:04:09.289,4
850,17674,-0.45,1.2,1.02,1.4,2022-03-04 10:04:09.399,4
851,17694,-0.43,2.22,-1.58,1.4,2022-03-04 10:04:09.499,4
852,17716,1.23,1.29,-2.13,1.4,2022-03-04 10:04:09.597,4
853,17736,1.0,-0.69,-1.62,1.4,2022-03-04 10:04:09.696,4
854,17756,-0.9,0.8,1.07,1.4,2022-03-04 10:04:09.797,4
855,17776,-0.61,0.99,-0.34,1.4,2022-03-04 10:04:09.896,4
856,17796,-0.45,0.85,-0.41,1.4,2022-03-04 10:04:09.994,4
857,17816,-0.26,0.4,-0.24,1.4,2022-03-04 10:04:10.093,4
858,17840,-0.18,0.45,0.27,1.4,2022-03-04 10:04:10.196,4
859,17860,-0.16,0.4,-0.34,0.0,2022-03-04 10:04:10.294,4
860,17880,-0.22,0.42,-0.29,0.0,2022-03-04 10:04:10.392,4
861,17900,-0.22,0.65,-0.15,0.0,2022-03-04 10:04:10.490,4
862,17924,-0.26,0.4,-0.49,0.0,2022-03-04 10:04:10.599,4
863,17942,-0.14,0.26,-0.18,0.0,2022-03-04 10:04:10.689,4
864,17962,-0.24,0.34,-0.21,0.0,2022-03-04 10:04:10.788,0
865,17984,-0.14,0.28,-0.23,0.0,2022-03-04 10:04:10.899,0
866,18004,-0.16,0.25,-0.24,0.0,2022-03-04 10:04:10.998,0
867,18024,-0.14,0.24,-0.28,0.0,2022-03-04 10:04:11.097,0
868,18048,-0.17,0.23,-0.27,1.1,2022-03-04 10:04:11.195,0
869,18068,-0.09,0.24,-0.25,1.1,2022-03-04 10:04:11.295,0
870,18088,-0.14,0.2,-0.22,1.1,2022-03-04 10:04:11.395,0
871,18108,-0.08,0.2,-0.26,1.1,2022-03-04 10:04:11.495,0
872,18130,-0.1,0.2,-0.25,1.1,2022-03-04 10:04:11.592,0
873,18150,-0.12,0.18,-0.21,1.1,2022-03-04 10:04:11.692,0
874,18170,-0.21,0.2,-0.4,1.1,2022-03-04 10:04:11.791,0
875,18190,-0.2,0.26,-0.27,1.1,2022-03-04 10:04:11.890,0
876,18210,-0.15,0.15,-0.22,1.1,2022-03-04 10:04:11.989,0
877,18230,-0.14,0.18,-0.24,1.1,2022-03-04 10:04:12.088,0
878,18256,-0.17,0.18,-0.23,1.1,2022-03-04 10:04:12.198,0
879,18276,-0.17,0.16,-0.26,0.0,2022-03-04 10:04:12.298,0
880,18296,-0.14,0.19,-0.28,0.0,2022-03-04 10:04:12.398,0
881,18316,-0.13,0.16,-0.29,0.0,2022-03-04 10:04:12.496,0
882,18338,-0.23,0.09,-0.24,0.0,2022-03-04 10:04:12.595,0
883,18358,-0.18,0.15,-0.19,0.0,2022-03-04 10:04:12.694,0
884,18378,0.11,0.14,-0.24,0.0,2022-03-04 10:04:12.794,0
885,18398,-0.22,0.14,-0.22,0.0,2022-03-04 10:04:12.894,0
886,18418,-0.23,0.12,-0.27,0.0,2022-03-04 10:04:12.994,0
887,18438,-0.2,0.08,-0.25,0.0,2022-03-04 10:04:13.095,0
888,18458,-0.16,0.11,-0.34,0.0,2022-03-04 10:04:13.191,0
889,18484,-0.17,0.11,-0.28,0.0,2022-03-04 10:04:13.299,0
890,18504,-0.13,0.13,-0.21,0.0,2022-03-04 10:04:13.398,0
891,18524,-0.16,0.15,-0.27,0.0,2022-03-04 10:04:13.498,0
892,18546,-0.15,0.1,-0.25,0.0,2022-03-04 10:04:13.598,0
893,18566,-0.15,0.1,-0.22,0.0,2022-03-04 10:04:13.696,0
894,18586,-0.21,0.11,-0.31,0.0,2022-03-04 10:04:13.798,0
895,18606,0.14,0.09,-0.26,0.0,2022-03-04 10:04:13.896,0
896,18626,-0.22,0.11,-0.22,0.0,2022-03-04 10:04:13.995,0
897,18646,0.11,0.1,-0.3,0.0,2022-03-04 10:04:14.096,0
898,18666,-0.21,0.08,-0.36,0.0,2022-03-04 10:04:14.195,0
899,18690,-0.2,-0.09,-0.2,0.0,2022-03-04 10:04:14.293,0
900,18710,0.12,0.12,-0.28,0.0,2022-03-04 10:04:14.392,0
901,18730,-0.19,0.14,-0.23,0.0,2022-03-04 10:04:14.490,0
902,18752,-0.17,-0.09,-0.24,0.0,2022-03-04 10:04:14.592,0
903,18774,0.15,-0.11,-0.31,0.0,2022-03-04 10:04:14.699,0
904,18794,-0.16,0.09,-0.31,0.0,2022-03-04 10:04:14.799,0
905,18814,0.14,-0.09,-0.16,0.0,2022-03-04 10:04:14.897,0
906,18834,-0.16,0.12,-0.29,0.0,2022-03-04 10:04:14.997,0
907,18854,-0.14,0.09,-0.25,0.0,2022-03-04 10:04:15.097,0
908,18878,0.15,-0.13,-0.22,0.0,2022-03-04 10:04:15.195,0
909,18898,-0.23,0.11,-0.35,0.0,2022-03-04 10:04:15.295,0
910,18918,-0.16,0.12,-0.22,0.0,2022-03-04 10:04:15.397,0
911,18938,-0.21,-0.12,-0.34,0.0,2022-03-04 10:04:15.494,0
912,18960,-0.21,0.11,-0.24,0.0,2022-03-04 10:04:15.593,0
913,18980,0.18,-0.22,-0.23,0.0,2022-03-04 10:04:15.693,0
914,19000,-0.24,0.12,-0.26,0.0,2022-03-04 10:04:15.792,0
915,19020,-0.17,0.12,-0.23,0.0,2022-03-04 10:04:15.892,0
916,19042,0.13,-0.1,-0.35,0.0,2022-03-04 10:04:15.999,0
917,19062,-0.22,0.09,-0.25,0.0,2022-03-04 10:04:16.099,0
918,19082,-0.22,0.08,-0.29,0.0,2022-03-04 10:04:16.198,0
919,19106,-0.22,-0.12,-0.25,0.0,2022-03-04 10:04:16.297,0
920,19126,-0.18,0.07,-0.25,0.0,2022-03-04 10:04:16.396,0
921,19146,-0.14,0.09,-0.27,0.0,2022-03-04 10:04:16.496,0
922,19168,-0.17,-0.13,-0.23,0.0,2022-03-04 10:04:16.595,0
923,19188,-0.12,0.1,-0.33,0.0,2022-03-04 10:04:16.694,0
924,19208,0.17,0.11,-0.29,0.0,2022-03-04 10:04:16.794,0
925,19228,-0.2,-0.12,-0.28,0.0,2022-03-04 10:04:16.895,0
926,19248,-0.15,0.11,-0.23,0.0,2022-03-04 10:04:16.993,0
927,19268,-0.16,-0.11,-0.27,0.0,2022-03-04 10:04:17.091,0
928,19292,-0.2,0.1,-0.35,0.0,2022-03-04 10:04:17.191,0
929,19312,-0.18,-0.13,-0.33,0.0,2022-03-04 10:04:17.291,0
930,19334,-0.2,0.1,-0.35,0.0,2022-03-04 10:04:17.399,0
931,19354,-0.22,-0.12,-0.24,0.0,2022-03-04 10:04:17.499,0
932,19376,0.2,0.09,-0.33,0.0,2022-03-04 10:04:17.597,0
933,19396,-0.19,0.12,-0.23,0.0,2022-03-04 10:04:17.697,0
934,19416,-0.21,-0.14,-0.23,0.0,2022-03-04 10:04:17.796,0
935,19436,-0.17,-0.08,-0.35,0.0,2022-03-04 10:04:17.897,0
936,19456,-0.22,0.1,-0.23,0.0,2022-03-04 10:04:17.995,0
937,19476,0.65,-0.56,-0.23,0.0,2022-03-04 10:04:18.095,0
938,19500,-0.18,0.16,-0.2,0.0,2022-03-04 10:04:18.194,0
939,19520,-0.2,0.35,0.48,0.0,2022-03-04 10:04:18.293,0
940,19540,-0.16,0.12,-0.32,0.0,2022-03-04 10:04:18.392,0
941,19560,-0.2,0.08,-0.21,0.0,2022-03-04 10:04:18.492,0
942,19582,-0.17,0.13,-0.38,0.0,2022-03-04 10:04:18.592,0
943,19604,-0.13,0.21,-0.28,0.0,2022-03-04 10:04:18.699,0
944,19624,-0.16,-0.09,-0.26,0.0,2022-03-04 10:04:18.798,0
945,19644,-0.16,-0.1,-0.41,0.0,2022-03-04 10:04:18.898,0
946,19664,0.17,-0.09,-0.17,0.0,2022-03-04 10:04:18.997,0
947,19684,-0.22,-0.12,-0.25,0.0,2022-03-04 10:04:19.097,0
948,19704,-0.16,0.09,-0.31,0.0,2022-03-04 10:04:19.188,0
