,LineNumber,Accel_X,Accel_Y,Accel_Z,Velocity,RealTime,Label
0,32,0.18,0.59,-0.29,1.8,2022-03-04 10:10:07.599,0
1,52,0.2,0.62,-0.34,1.8,2022-03-04 10:10:07.699,0
2,72,0.24,0.58,-0.31,1.8,2022-03-04 10:10:07.798,0
3,92,0.33,0.59,-0.19,1.8,2022-03-04 10:10:07.898,0
4,112,0.22,0.49,-0.24,1.8,2022-03-04 10:10:07.997,0
5,132,-0.18,0.53,-0.21,1.8,2022-03-04 10:10:08.099,0
6,156,0.2,0.54,-0.2,1.8,2022-03-04 10:10:08.195,0
7,176,0.18,0.51,-0.34,0.0,2022-03-04 10:10:08.294,0
8,196,0.12,0.48,-0.23,0.0,2022-03-04 10:10:08.394,0
9,216,0.18,0.45,-0.27,0.0,2022-03-04 10:10:08.494,0
10,238,0.19,0.43,-0.21,0.0,2022-03-04 10:10:08.592,0
11,258,0.17,0.46,-0.22,0.0,2022-03-04 10:10:08.692,0
12,278,0.16,0.45,-0.23,0.0,2022-03-04 10:10:08.791,0
13,298,0.15,0.41,-0.3,0.0,2022-03-04 10:10:08.891,0
14,318,0.22,0.39,-0.21,0.0,2022-03-04 10:10:08.989,0
15,338,0.14,0.43,-0.18,0.0,2022-03-04 10:10:09.090,0
16,364,0.18,0.32,-0.24,0.7,2022-03-04 10:10:09.198,0
17,384,0.1,0.3,-0.23,0.7,2022-03-04 10:10:09.297,0
18,404,0.17,0.26,-0.25,0.7,2022-03-04 10:10:09.396,0
19,424,0.16,0.25,-0.26,0.7,2022-03-04 10:10:09.495,0
20,446,-0.17,0.24,-0.2,0.7,2022-03-04 10:10:09.595,0
21,466,-0.14,0.26,-0.21,0.7,2022-03-04 10:10:09.694,0
22,486,-0.17,0.26,-0.23,0.7,2022-03-04 10:10:09.793,0
23,506,0.18,0.19,-0.32,0.7,2022-03-04 10:10:09.892,0
24,526,0.15,0.19,-0.26,0.7,2022-03-04 10:10:09.995,0
25,546,0.14,0.19,-0.24,0.7,2022-03-04 10:10:10.091,0
26,566,-0.17,0.2,-0.21,0.7,2022-03-04 10:10:10.190,0
27,592,0.12,0.19,-0.24,0.7,2022-03-04 10:10:10.299,0
28,612,0.13,0.18,-0.28,0.0,2022-03-04 10:10:10.399,0
29,632,-0.15,0.18,-0.27,0.0,2022-03-04 10:10:10.498,0
30,654,-0.16,0.16,-0.25,0.0,2022-03-04 10:10:10.599,0
31,674,0.18,0.19,-0.27,0.0,2022-03-04 10:10:10.696,0
32,694,0.14,0.1,-0.25,0.0,2022-03-04 10:10:10.796,0
33,714,-0.21,0.13,-0.27,0.0,2022-03-04 10:10:10.895,0
34,734,0.15,0.21,-0.24,0.0,2022-03-04 10:10:10.995,0
35,754,0.18,-0.08,-0.24,0.0,2022-03-04 10:10:11.094,0
36,778,-0.21,0.18,-0.25,0.0,2022-03-04 10:10:11.195,0
37,798,-0.17,0.1,-0.27,0.0,2022-03-04 10:10:11.292,0
38,818,0.17,0.1,-0.21,0.0,2022-03-04 10:10:11.392,0
39,838,-0.21,0.15,-0.18,0.0,2022-03-04 10:10:11.492,0
40,860,-0.28,0.25,-0.32,0.0,2022-03-04 10:10:11.592,0
41,882,0.2,0.12,-0.22,0.0,2022-03-04 10:10:11.699,0
42,902,0.2,0.27,-0.4,0.0,2022-03-04 10:10:11.799,0
43,922,0.3,0.22,-0.35,0.0,2022-03-04 10:10:11.898,0
44,942,-0.22,0.17,-0.3,0.0,2022-03-04 10:10:11.997,0
45,962,-0.2,0.13,-0.25,0.0,2022-03-04 10:10:12.098,0
46,984,0.4,-0.4,-0.52,0.0,2022-03-04 10:10:12.186,0
47,1006,-0.18,0.15,-0.33,0.0,2022-03-04 10:10:12.295,0
48,1026,0.13,0.12,-0.25,0.0,2022-03-04 10:10:12.395,0
49,1046,0.16,0.13,-0.22,0.0,2022-03-04 10:10:12.494,0
50,1068,-0.11,0.11,-0.22,0.0,2022-03-04 10:10:12.592,0
51,1088,-0.19,0.11,-0.28,0.0,2022-03-04 10:10:12.691,0
52,1108,-0.18,0.13,-0.32,0.0,2022-03-04 10:10:12.791,0
53,1128,0.19,0.14,-0.22,0.0,2022-03-04 10:10:12.891,0
54,1148,0.22,0.15,-0.32,0.0,2022-03-04 10:10:12.990,0
55,1168,-0.23,0.16,-0.27,0.0,2022-03-04 10:10:13.089,0
56,1188,-0.23,0.14,-0.33,0.0,2022-03-04 10:10:13.188,0
57,1214,0.15,0.06,-0.22,0.0,2022-03-04 10:10:13.298,0
58,1234,-0.23,0.08,-0.33,0.0,2022-03-04 10:10:13.397,0
59,1254,0.11,0.07,-0.27,0.0,2022-03-04 10:10:13.496,1
60,1276,-0.21,0.16,-0.24,0.0,2022-03-04 10:10:13.595,1
61,1296,-0.18,0.47,-0.32,0.0,2022-03-04 10:10:13.695,1
62,1316,-0.24,0.49,-0.49,0.0,2022-03-04 10:10:13.794,1
63,1336,-0.57,0.69,-0.58,0.0,2022-03-04 10:10:13.893,1
64,1356,-0.24,0.71,-0.51,0.0,2022-03-04 10:10:13.992,1
65,1376,0.42,0.78,-0.36,0.0,2022-03-04 10:10:14.091,1
66,1398,-0.38,0.76,-0.32,0.0,2022-03-04 10:10:14.195,1
67,1420,-0.44,0.98,-0.28,0.0,2022-03-04 10:10:14.291,1
68,1440,-0.51,1.16,0.33,0.0,2022-03-04 10:10:14.391,1
69,1462,-0.41,1.71,-0.39,0.0,2022-03-04 10:10:14.499,1
70,1482,-0.54,1.65,-0.49,0.0,2022-03-04 10:10:14.588,1
71,1504,-0.49,1.73,-0.78,0.0,2022-03-04 10:10:14.699,1
72,1524,-0.5,1.86,-0.76,0.0,2022-03-04 10:10:14.797,1
73,1544,-0.48,1.82,-0.55,0.0,2022-03-04 10:10:14.896,1
74,1564,-0.59,1.92,-0.64,0.0,2022-03-04 10:10:14.995,1
75,1584,-0.5,1.96,-0.62,0.0,2022-03-04 10:10:15.094,1
76,1608,-0.56,2.1,-0.91,0.0,2022-03-04 10:10:15.194,1
77,1628,-0.64,2.33,-0.69,0.0,2022-03-04 10:10:15.292,1
78,1648,-0.97,2.59,-1.15,0.0,2022-03-04 10:10:15.391,1
79,1668,-0.46,2.79,0.82,0.0,2022-03-04 10:10:15.491,1
80,1690,-0.81,2.45,1.07,0.0,2022-03-04 10:10:15.590,1
81,1710,-1.02,2.66,1.18,0.0,2022-03-04 10:10:15.689,1
82,1732,-0.77,2.85,-0.91,0.0,2022-03-04 10:10:15.799,1
83,1752,-0.66,2.63,-0.72,0.0,2022-03-04 10:10:15.899,1
84,1772,-0.64,2.63,-1.08,0.0,2022-03-04 10:10:15.999,1
85,1790,-0.9,1.9,-0.92,0.0,2022-03-04 10:10:16.086,1
86,1816,0.78,0.61,-0.65,4.7,2022-03-04 10:10:16.198,1
87,1836,-0.57,0.76,0.63,4.7,2022-03-04 10:10:16.298,1
88,1856,-1.47,1.92,0.83,4.7,2022-03-04 10:10:16.395,1
89,1876,-0.73,2.24,0.57,4.7,2022-03-04 10:10:16.494,1
90,1898,-0.47,0.79,-0.55,4.7,2022-03-04 10:10:16.593,1
91,1918,0.25,0.39,-0.82,4.7,2022-03-04 10:10:16.692,1
92,1938,-0.62,1.27,0.37,4.7,2022-03-04 10:10:16.792,1
93,1958,-0.54,1.54,0.49,4.7,2022-03-04 10:10:16.891,1
94,1978,-0.63,1.02,0.55,4.7,2022-03-04 10:10:16.990,1
95,1998,-0.62,0.72,-0.43,4.7,2022-03-04 10:10:17.089,1
96,2022,-0.44,1.1,-0.48,10.8,2022-03-04 10:10:17.189,1
97,2044,0.69,1.18,-0.55,10.8,2022-03-04 10:10:17.299,1
98,2064,-0.43,1.12,-0.81,10.8,2022-03-04 10:10:17.398,1
99,2084,0.41,1.14,0.69,10.8,2022-03-04 10:10:17.498,1
100,2106,-0.24,1.48,-0.57,10.8,2022-03-04 10:10:17.598,1
101,2126,-0.52,1.34,-0.58,10.8,2022-03-04 10:10:17.695,1
102,2146,-0.65,1.09,-0.54,10.8,2022-03-04 10:10:17.794,1
103,2166,-0.51,0.94,-0.63,10.8,2022-03-04 10:10:17.893,1
104,2186,-0.7,1.05,-0.42,10.8,2022-03-04 10:10:17.993,1
105,2206,-0.78,1.08,-0.48,10.8,2022-03-04 10:10:18.092,1
106,2226,-0.43,0.81,-0.45,10.8,2022-03-04 10:10:18.191,1
107,2250,0.41,0.56,0.72,18.0,2022-03-04 10:10:18.290,1
108,2270,-0.52,0.95,-0.78,18.0,2022-03-04 10:10:18.389,1
109,2292,-0.68,0.93,-0.63,18.0,2022-03-04 10:10:18.499,1
110,2314,0.68,0.76,0.83,18.0,2022-03-04 10:10:18.599,1
111,2334,0.62,-0.68,0.58,18.0,2022-03-04 10:10:18.698,1
112,2354,0.38,-0.94,-0.71,18.0,2022-03-04 10:10:18.796,1
113,2374,0.81,-0.74,0.56,18.0,2022-03-04 10:10:18.896,1
114,2394,0.41,-0.73,-0.41,18.0,2022-03-04 10:10:18.996,1
115,2414,0.26,-0.71,0.45,18.0,2022-03-04 10:10:19.096,1
116,2438,0.56,-0.63,-0.8,22.3,2022-03-04 10:10:19.194,1
117,2458,0.6,-1.1,-1.23,22.3,2022-03-04 10:10:19.293,1
118,2478,0.6,-0.78,-0.62,22.3,2022-03-04 10:10:19.391,1
119,2498,0.67,-0.82,0.56,22.3,2022-03-04 10:10:19.491,1
120,2520,0.52,-0.87,-0.57,22.3,2022-03-04 10:10:19.598,1
121,2540,-0.66,0.61,-0.73,22.3,2022-03-04 10:10:19.690,1
122,2562,-0.45,0.81,-0.62,22.3,2022-03-04 10:10:19.799,1
123,2582,-0.76,0.8,0.43,22.3,2022-03-04 10:10:19.898,1
124,2602,-0.64,0.5,-0.64,22.3,2022-03-04 10:10:19.998,1
125,2620,-1.12,1.23,-0.51,22.3,2022-03-04 10:10:20.087,1
126,2646,-0.47,0.75,0.78,24.8,2022-03-04 10:10:20.197,1
127,2666,-0.61,1.17,0.96,24.8,2022-03-04 10:10:20.295,1
128,2686,-0.22,0.74,-0.78,24.8,2022-03-04 10:10:20.396,1
129,2706,0.57,0.78,-0.96,24.8,2022-03-04 10:10:20.496,1
130,2728,-0.89,0.81,-0.9,24.8,2022-03-04 10:10:20.593,1
131,2748,-0.63,0.81,-0.71,24.8,2022-03-04 10:10:20.692,1
132,2768,-1.36,1.37,0.95,24.8,2022-03-04 10:10:20.792,1
133,2788,-0.93,0.98,0.96,24.8,2022-03-04 10:10:20.891,1
134,2808,0.56,1.08,-1.5,24.8,2022-03-04 10:10:20.990,1
135,2828,-0.69,1.04,0.97,24.8,2022-03-04 10:10:21.091,1
136,2852,-1.11,1.15,-0.97,26.3,2022-03-04 10:10:21.189,1
137,2874,-0.77,0.82,-1.02,26.3,2022-03-04 10:10:21.298,1
138,2894,1.13,1.37,-1.53,26.3,2022-03-04 10:10:21.397,1
139,2914,1.08,1.2,-1.18,26.3,2022-03-04 10:10:21.498,1
140,2936,-0.94,1.07,0.98,26.3,2022-03-04 10:10:21.596,1
141,2956,1.2,0.85,-1.12,26.3,2022-03-04 10:10:21.695,1
142,2976,0.63,0.77,-0.87,26.3,2022-03-04 10:10:21.796,1
143,2996,-0.75,0.88,0.49,26.3,2022-03-04 10:10:21.895,1
144,3016,0.52,0.88,0.93,26.3,2022-03-04 10:10:21.995,1
145,3036,-0.82,0.8,-1.25,26.3,2022-03-04 10:10:22.092,1
146,3060,-0.83,0.63,-1.11,29.2,2022-03-04 10:10:22.191,1
147,3080,-0.58,0.75,1.22,29.2,2022-03-04 10:10:22.291,1
148,3100,-0.74,0.75,-1.78,29.2,2022-03-04 10:10:22.391,1
149,3122,-0.55,0.66,-1.49,29.2,2022-03-04 10:10:22.499,1
150,3144,1.25,0.68,1.35,29.2,2022-03-04 10:10:22.598,1
151,3164,-1.33,0.61,1.03,29.2,2022-03-04 10:10:22.698,1
152,3184,-0.93,0.55,1.17,29.2,2022-03-04 10:10:22.798,1
153,3204,-0.65,0.62,-0.76,29.2,2022-03-04 10:10:22.897,1
154,3224,-0.71,0.33,-0.57,29.2,2022-03-04 10:10:22.996,1
155,3244,0.76,0.64,-0.94,29.2,2022-03-04 10:10:23.095,1
156,3264,-0.7,0.8,-1.24,29.2,2022-03-04 10:10:23.195,1
157,3288,0.7,0.6,-1.44,33.8,2022-03-04 10:10:23.294,1
158,3308,0.47,0.68,-1.22,33.8,2022-03-04 10:10:23.393,1
159,3328,1.05,-1.37,-1.47,33.8,2022-03-04 10:10:23.494,1
160,3350,1.24,-1.5,1.03,33.8,2022-03-04 10:10:23.591,1
161,3370,1.05,-1.03,1.31,33.8,2022-03-04 10:10:23.690,1
162,3392,2.55,-1.62,2.07,33.8,2022-03-04 10:10:23.799,1
163,3412,-1.85,-1.56,-2.88,33.8,2022-03-04 10:10:23.898,1
164,3432,1.01,-1.36,-1.2,33.8,2022-03-04 10:10:23.998,1
165,3452,-1.13,-1.71,-1.87,33.8,2022-03-04 10:10:24.098,1
166,3472,0.94,-1.03,-1.79,37.4,2022-03-04 10:10:24.192,1
167,3496,0.65,-0.83,1.15,37.4,2022-03-04 10:10:24.297,1
168,3516,0.38,-0.5,0.49,37.4,2022-03-04 10:10:24.396,1
169,3536,0.4,0.28,-0.83,37.4,2022-03-04 10:10:24.496,1
170,3558,-0.65,-0.38,1.09,37.4,2022-03-04 10:10:24.594,1
171,3578,-0.56,-0.36,0.43,37.4,2022-03-04 10:10:24.693,1
172,3598,-0.72,-0.37,-0.79,37.4,2022-03-04 10:10:24.793,1
173,3618,-0.59,0.39,-0.7,37.4,2022-03-04 10:10:24.893,1
174,3638,0.73,-0.39,-0.57,37.4,2022-03-04 10:10:24.994,1
175,3658,-1.11,0.42,-1.04,37.4,2022-03-04 10:10:25.090,1
176,3684,-1.01,0.42,0.69,38.9,2022-03-04 10:10:25.199,1
177,3704,-1.23,0.51,-1.32,38.9,2022-03-04 10:10:25.298,1
178,3724,-0.92,0.61,0.82,38.9,2022-03-04 10:10:25.398,1
179,3744,0.72,-0.33,1.1,38.9,2022-03-04 10:10:25.497,1
180,3766,-0.9,-0.5,-0.86,38.9,2022-03-04 10:10:25.596,1
181,3786,-0.89,-0.77,-1.39,38.9,2022-03-04 10:10:25.695,1
182,3806,-0.76,-0.64,-1.25,38.9,2022-03-04 10:10:25.795,1
183,3826,-0.84,-0.45,-1.78,38.9,2022-03-04 10:10:25.894,1
184,3846,0.91,0.49,-1.36,38.9,2022-03-04 10:10:25.994,1
185,3866,-0.82,-0.32,-0.47,38.9,2022-03-04 10:10:26.093,1
186,3886,-0.94,0.32,-1.09,38.9,2022-03-04 10:10:26.193,1
187,3910,-0.73,0.48,1.24,40.0,2022-03-04 10:10:26.291,1
188,3930,1.49,0.48,-0.94,40.0,2022-03-04 10:10:26.391,1
189,3952,-0.61,-0.61,-1.06,40.0,2022-03-04 10:10:26.499,1
190,3974,-1.05,-0.64,-1.13,40.0,2022-03-04 10:10:26.598,1
191,3994,-1.6,-0.89,-0.84,40.0,2022-03-04 10:10:26.698,1
192,4014,-1.16,-0.6,-1.35,40.0,2022-03-04 10:10:26.798,1
193,4034,0.35,-0.64,-0.75,40.0,2022-03-04 10:10:26.896,1
194,4054,0.64,-0.42,1.37,40.0,2022-03-04 10:10:26.996,1
195,4074,-1.07,-0.5,-1.08,40.0,2022-03-04 10:10:27.095,1
196,4098,-0.92,-0.37,1.0,42.1,2022-03-04 10:10:27.195,1
197,4118,-0.85,-0.63,1.05,42.1,2022-03-04 10:10:27.299,1
198,4138,1.65,-0.47,1.61,42.1,2022-03-04 10:10:27.399,1
199,4158,-1.28,-0.43,-1.18,42.1,2022-03-04 10:10:27.497,1
200,4178,-0.78,0.57,1.77,42.1,2022-03-04 10:10:27.583,1
201,4200,1.75,0.63,-1.21,42.1,2022-03-04 10:10:27.691,1
202,4222,0.88,-0.48,-1.25,42.1,2022-03-04 10:10:27.799,1
203,4242,-2.19,0.71,1.1,42.1,2022-03-04 10:10:27.899,1
204,4262,-2.28,-0.47,-2.19,42.1,2022-03-04 10:10:27.998,1
205,4282,1.69,0.68,1.59,42.1,2022-03-04 10:10:28.097,1
206,4306,-2.05,-0.59,-1.7,43.9,2022-03-04 10:10:28.196,1
207,4326,0.5,-1.18,-1.24,43.9,2022-03-04 10:10:28.296,1
208,4346,0.78,-1.04,-1.25,43.9,2022-03-04 10:10:28.395,1
209,4366,0.7,-0.89,0.91,43.9,2022-03-04 10:10:28.497,1
210,4388,0.87,-1.25,1.29,43.9,2022-03-04 10:10:28.595,1
211,4408,0.98,-1.06,-0.76,43.9,2022-03-04 10:10:28.694,1
212,4428,0.55,-0.94,0.83,43.9,2022-03-04 10:10:28.793,1
213,4448,0.53,-1.01,0.67,43.9,2022-03-04 10:10:28.893,1
214,4468,0.48,-1.01,-0.73,43.9,2022-03-04 10:10:28.992,1
215,4488,-1.02,-0.84,-1.38,43.9,2022-03-04 10:10:29.090,1
216,4514,0.63,-0.62,-1.33,45.4,2022-03-04 10:10:29.199,1
217,4534,0.24,-0.76,-1.57,45.4,2022-03-04 10:10:29.299,1
218,4554,-0.38,-0.39,1.62,45.4,2022-03-04 10:10:29.398,1
219,4574,-0.85,-0.52,-0.8,45.4,2022-03-04 10:10:29.497,1
220,4596,0.43,-0.5,-0.75,45.4,2022-03-04 10:10:29.596,1
221,4616,0.74,-0.43,0.63,45.4,2022-03-04 10:10:29.696,1
222,4636,-0.46,-0.76,-0.76,45.4,2022-03-04 10:10:29.795,1
223,4656,-0.79,-0.46,1.33,45.4,2022-03-04 10:10:29.895,1
224,4676,-1.12,-0.4,-1.09,45.4,2022-03-04 10:10:29.993,1
225,4696,-1.14,0.33,-1.36,45.4,2022-03-04 10:10:30.092,1
226,4718,-1.64,0.3,-1.31,46.4,2022-03-04 10:10:30.199,1
227,4740,0.88,0.37,-1.11,46.4,2022-03-04 10:10:30.291,1
228,4760,-0.94,0.68,-0.92,46.4,2022-03-04 10:10:30.391,1
229,4782,-0.84,-0.36,-1.02,46.4,2022-03-04 10:10:30.499,1
230,4804,-0.46,0.29,0.88,46.4,2022-03-04 10:10:30.599,1
231,4824,-0.87,-0.36,1.4,46.4,2022-03-04 10:10:30.698,1
232,4844,-0.68,0.47,-1.64,46.4,2022-03-04 10:10:30.798,1
233,4864,0.92,0.41,-1.71,46.4,2022-03-04 10:10:30.897,1
234,4884,-0.49,0.48,-1.43,46.4,2022-03-04 10:10:30.996,1
235,4904,1.0,0.5,-0.61,46.4,2022-03-04 10:10:31.095,1
236,4928,-1.06,-0.56,1.25,47.2,2022-03-04 10:10:31.195,10
237,4948,-0.94,-0.58,1.05,47.2,2022-03-04 10:10:31.294,10
238,4968,-0.43,-0.61,-0.82,47.2,2022-03-04 10:10:31.393,10
239,4988,0.31,-0.59,0.9,47.2,2022-03-04 10:10:31.492,10
240,5010,0.66,-0.88,-0.53,47.2,2022-03-04 10:10:31.592,10
241,5030,1.15,-0.77,-1.24,47.2,2022-03-04 10:10:31.691,10
242,5050,0.93,-0.6,1.19,47.2,2022-03-04 10:10:31.792,10
243,5072,-0.91,-0.91,-0.87,47.2,2022-03-04 10:10:31.899,10
244,5092,1.29,-0.81,-1.34,47.2,2022-03-04 10:10:31.998,10
245,5112,0.78,-0.72,-1.06,47.2,2022-03-04 10:10:32.098,10
246,5136,0.52,-0.83,-0.92,48.6,2022-03-04 10:10:32.197,10
247,5156,-1.08,-0.83,-1.17,48.6,2022-03-04 10:10:32.296,10
248,5176,0.61,-0.64,1.15,48.6,2022-03-04 10:10:32.397,10
249,5196,0.83,-0.75,-1.02,48.6,2022-03-04 10:10:32.495,10
250,5218,0.98,-0.71,1.22,48.6,2022-03-04 10:10:32.594,10
251,5238,0.3,-0.77,1.51,48.6,2022-03-04 10:10:32.694,10
252,5258,0.92,-0.83,-1.02,48.6,2022-03-04 10:10:32.792,10
253,5278,0.55,-1.42,-0.89,48.6,2022-03-04 10:10:32.892,10
254,5298,-0.62,-1.01,1.02,48.6,2022-03-04 10:10:32.992,10
255,5318,0.54,-0.92,-0.46,48.6,2022-03-04 10:10:33.091,10
256,5340,-0.96,-0.89,1.08,50.4,2022-03-04 10:10:33.194,10
257,5364,1.02,-0.95,1.0,50.4,2022-03-04 10:10:33.299,10
258,5384,-0.83,-1.02,1.64,50.4,2022-03-04 10:10:33.398,10
259,5404,1.34,-0.74,0.89,50.4,2022-03-04 10:10:33.497,10
260,5426,-0.97,-1.11,-0.66,50.4,2022-03-04 10:10:33.596,10
261,5446,0.63,-1.22,-0.95,50.4,2022-03-04 10:10:33.696,4
262,5466,-0.67,-1.44,1.29,50.4,2022-03-04 10:10:33.795,4
263,5486,-0.27,-1.19,-0.85,50.4,2022-03-04 10:10:33.894,4
264,5506,0.59,-1.36,-0.83,50.4,2022-03-04 10:10:33.994,4
265,5526,0.64,-1.29,1.24,50.4,2022-03-04 10:10:34.093,4
266,5546,-0.93,-1.19,-0.48,50.4,2022-03-04 10:10:34.192,4
267,5570,0.63,-1.3,0.64,50.4,2022-03-04 10:10:34.291,4
268,5590,0.68,-1.4,-1.35,50.4,2022-03-04 10:10:34.391,4
269,5610,-0.31,-1.26,-0.88,50.4,2022-03-04 10:10:34.490,4
270,5634,0.47,-1.32,-0.61,50.4,2022-03-04 10:10:34.599,4
271,5654,0.22,-1.36,0.76,50.4,2022-03-04 10:10:34.698,4
272,5674,0.61,-1.42,0.64,50.4,2022-03-04 10:10:34.797,4
273,5694,0.73,-1.52,-0.58,50.4,2022-03-04 10:10:34.898,4
274,5714,1.0,-1.63,-0.73,50.4,2022-03-04 10:10:34.996,4
275,5734,0.68,-1.72,0.63,50.4,2022-03-04 10:10:35.096,4
276,5758,0.67,-1.61,-0.9,50.4,2022-03-04 10:10:35.195,4
277,5778,0.82,-1.48,-1.07,49.0,2022-03-04 10:10:35.294,4
278,5798,0.81,-1.48,-1.11,49.0,2022-03-04 10:10:35.393,4
279,5818,0.7,-1.79,0.94,49.0,2022-03-04 10:10:35.494,4
280,5840,0.53,-1.6,-0.92,49.0,2022-03-04 10:10:35.592,4
281,5860,0.66,-1.59,-1.1,49.0,2022-03-04 10:10:35.691,4
282,5880,0.6,-1.59,-0.82,49.0,2022-03-04 10:10:35.790,4
283,5900,0.56,-1.55,-1.13,49.0,2022-03-04 10:10:35.890,4
284,5922,1.61,-2.0,-0.99,49.0,2022-03-04 10:10:35.998,4
285,5942,-0.52,-1.81,-0.7,49.0,2022-03-04 10:10:36.099,4
286,5966,0.56,-1.68,-0.88,49.0,2022-03-04 10:10:36.197,4
287,5986,0.61,-1.72,-0.69,46.1,2022-03-04 10:10:36.296,4
288,6006,0.61,-1.71,-1.22,46.1,2022-03-04 10:10:36.396,4
289,6026,1.1,-1.64,0.7,46.1,2022-03-04 10:10:36.495,4
290,6048,0.39,-1.82,-1.0,46.1,2022-03-04 10:10:36.595,4
291,6068,0.85,-1.71,0.58,46.1,2022-03-04 10:10:36.694,4
292,6088,0.69,-1.37,-0.82,46.1,2022-03-04 10:10:36.794,4
293,6108,0.85,-1.24,0.51,46.1,2022-03-04 10:10:36.892,4
294,6128,2.0,-1.33,1.2,46.1,2022-03-04 10:10:36.991,4
295,6148,0.64,-1.22,-1.04,46.1,2022-03-04 10:10:37.091,4
296,6172,-1.38,-1.51,-0.98,46.1,2022-03-04 10:10:37.190,4
297,6194,2.21,-1.09,-1.68,40.7,2022-03-04 10:10:37.299,4
298,6212,0.71,-1.16,-0.97,40.7,2022-03-04 10:10:37.388,4
299,6234,0.47,-1.14,0.92,40.7,2022-03-04 10:10:37.498,4
300,6256,0.48,-1.16,-0.73,40.7,2022-03-04 10:10:37.597,4
301,6276,0.63,-1.16,0.52,40.7,2022-03-04 10:10:37.696,4
302,6296,0.47,-1.08,0.44,40.7,2022-03-04 10:10:37.796,4
303,6316,0.43,-1.15,-1.11,40.7,2022-03-04 10:10:37.895,4
304,6336,0.93,-0.98,-0.65,40.7,2022-03-04 10:10:37.995,4
305,6356,0.3,-0.96,-0.64,40.7,2022-03-04 10:10:38.093,4
306,6380,0.79,-0.9,-0.56,40.7,2022-03-04 10:10:38.193,4
307,6400,0.49,-0.86,-0.64,34.9,2022-03-04 10:10:38.292,4
308,6420,0.86,-1.05,-0.6,34.9,2022-03-04 10:10:38.391,4
309,6440,0.46,-0.84,0.51,34.9,2022-03-04 10:10:38.490,4
310,6462,0.48,-0.98,-0.82,34.9,2022-03-04 10:10:38.595,4
311,6482,0.5,-1.02,-0.79,34.9,2022-03-04 10:10:38.689,4
312,6504,0.85,-0.76,-0.59,34.9,2022-03-04 10:10:38.799,4
313,6522,0.43,-0.76,-0.53,34.9,2022-03-04 10:10:38.887,4
314,6544,0.73,-0.75,0.41,34.9,2022-03-04 10:10:38.997,4
315,6564,0.66,-0.81,0.58,34.9,2022-03-04 10:10:39.097,4
316,6588,0.59,-0.98,0.7,34.9,2022-03-04 10:10:39.196,4
317,6608,0.54,-0.79,0.77,31.7,2022-03-04 10:10:39.294,4
318,6628,0.56,-0.82,0.49,31.7,2022-03-04 10:10:39.394,4
319,6648,0.7,-0.94,0.43,31.7,2022-03-04 10:10:39.493,4
320,6670,0.93,-0.95,-0.58,31.7,2022-03-04 10:10:39.592,4
321,6690,1.02,-0.94,-0.5,31.7,2022-03-04 10:10:39.691,4
322,6710,1.64,-0.93,-0.5,31.7,2022-03-04 10:10:39.791,4
323,6730,1.74,-0.88,0.46,31.7,2022-03-04 10:10:39.890,4
324,6752,1.47,-0.87,0.41,31.7,2022-03-04 10:10:39.999,4
325,6770,1.54,-0.76,-0.69,31.7,2022-03-04 10:10:40.089,4
326,6796,1.76,-0.87,-0.41,31.7,2022-03-04 10:10:40.199,4
327,6816,1.55,-0.74,0.44,28.4,2022-03-04 10:10:40.297,4
328,6836,1.37,-0.79,-0.48,28.4,2022-03-04 10:10:40.396,4
329,6856,1.57,-0.71,-0.55,28.4,2022-03-04 10:10:40.497,4
330,6878,1.36,-0.52,-0.35,28.4,2022-03-04 10:10:40.594,7
331,6898,1.23,-0.38,-0.9,28.4,2022-03-04 10:10:40.694,7
332,6918,0.76,-0.43,-0.57,28.4,2022-03-04 10:10:40.794,7
333,6938,0.51,-0.51,0.66,28.4,2022-03-04 10:10:40.892,7
334,6958,-0.47,0.34,0.39,28.4,2022-03-04 10:10:40.992,7
335,6978,-0.65,0.51,-0.79,28.4,2022-03-04 10:10:41.092,7
336,6998,-0.8,0.36,-1.12,28.4,2022-03-04 10:10:41.197,7
337,7022,-0.57,0.44,0.48,28.4,2022-03-04 10:10:41.290,7
338,7042,-0.77,0.36,0.64,23.8,2022-03-04 10:10:41.390,7
339,7064,-1.07,0.39,-0.79,23.8,2022-03-04 10:10:41.499,7
340,7084,-1.17,0.46,-0.83,23.8,2022-03-04 10:10:41.588,7
341,7106,-1.71,0.32,-0.48,23.8,2022-03-04 10:10:41.698,7
342,7126,-1.8,0.32,-0.47,23.8,2022-03-04 10:10:41.796,7
343,7146,-2.46,0.23,0.85,23.8,2022-03-04 10:10:41.895,7
344,7166,-2.18,0.27,0.63,23.8,2022-03-04 10:10:41.994,7
345,7186,-2.61,0.21,-0.64,23.8,2022-03-04 10:10:42.094,7
346,7210,-3.0,-0.15,-0.4,23.8,2022-03-04 10:10:42.193,7
347,7230,-3.32,0.31,0.67,20.9,2022-03-04 10:10:42.292,7
348,7250,-3.01,-0.43,0.73,20.9,2022-03-04 10:10:42.391,7
349,7270,-2.99,-0.32,0.36,20.9,2022-03-04 10:10:42.490,7
350,7292,-3.31,-0.27,0.66,20.9,2022-03-04 10:10:42.590,7
351,7312,-3.23,-0.32,0.56,20.9,2022-03-04 10:10:42.689,7
352,7332,-3.73,-0.39,-0.75,20.9,2022-03-04 10:10:42.788,7
353,7354,-3.82,-1.11,0.58,20.9,2022-03-04 10:10:42.898,7
354,7374,-3.62,-1.36,0.69,20.9,2022-03-04 10:10:42.998,7
355,7394,-3.86,-1.27,0.61,20.9,2022-03-04 10:10:43.097,7
356,7418,-3.71,-1.32,0.9,20.9,2022-03-04 10:10:43.197,7
357,7438,-3.71,-0.87,-0.71,19.1,2022-03-04 10:10:43.294,7
358,7458,-3.94,-1.04,0.28,19.1,2022-03-04 10:10:43.394,7
359,7478,-3.56,-0.96,0.53,19.1,2022-03-04 10:10:43.493,7
360,7500,-3.52,-1.13,0.9,19.1,2022-03-04 10:10:43.594,7
361,7520,-3.35,-1.24,-0.77,19.1,2022-03-04 10:10:43.692,7
362,7540,-2.94,-1.12,-0.61,19.1,2022-03-04 10:10:43.791,7
363,7560,-3.26,-0.96,0.41,19.1,2022-03-04 10:10:43.890,7
364,7580,-2.83,-1.06,-0.37,19.1,2022-03-04 10:10:43.990,7
365,7600,-3.3,-1.17,0.71,19.1,2022-03-04 10:10:44.089,7
366,7626,-3.35,-1.22,0.72,19.1,2022-03-04 10:10:44.198,7
367,7646,-3.65,-1.32,-0.67,18.0,2022-03-04 10:10:44.298,7
368,7666,-2.75,-1.18,0.52,18.0,2022-03-04 10:10:44.397,7
369,7686,-3.02,-1.29,-0.71,18.0,2022-03-04 10:10:44.497,7
370,7708,-2.66,-1.11,-0.58,18.0,2022-03-04 10:10:44.597,7
371,7728,-2.37,-1.43,0.5,18.0,2022-03-04 10:10:44.694,7
372,7748,-2.37,-1.52,0.55,18.0,2022-03-04 10:10:44.794,7
373,7768,-2.69,-1.33,0.36,18.0,2022-03-04 10:10:44.894,7
374,7788,-2.31,-1.31,-0.53,18.0,2022-03-04 10:10:44.992,7
375,7808,-2.29,-1.37,-0.56,18.0,2022-03-04 10:10:45.094,7
376,7832,-2.66,-1.55,-0.77,19.4,2022-03-04 10:10:45.190,7
377,7852,-2.57,-1.4,0.82,19.4,2022-03-04 10:10:45.290,7
378,7872,-2.1,-1.54,-0.4,19.4,2022-03-04 10:10:45.389,7
379,7894,-2.26,-1.46,-0.8,19.4,2022-03-04 10:10:45.499,7
380,7916,-1.83,-1.49,0.41,19.4,2022-03-04 10:10:45.598,7
381,7936,-2.16,-1.52,0.75,19.4,2022-03-04 10:10:45.697,7
382,7956,-2.12,-1.56,0.78,19.4,2022-03-04 10:10:45.797,7
383,7976,-2.07,-1.64,-0.58,19.4,2022-03-04 10:10:45.897,7
384,7996,-2.12,-1.83,-0.39,19.4,2022-03-04 10:10:45.995,7
385,8016,-2.08,-1.82,0.47,19.4,2022-03-04 10:10:46.095,7
386,8040,-2.05,-1.77,0.55,19.4,2022-03-04 10:10:46.194,7
387,8060,-2.27,-1.76,-0.78,18.7,2022-03-04 10:10:46.293,7
388,8080,-2.43,-1.78,0.4,18.7,2022-03-04 10:10:46.391,7
389,8100,-2.74,-1.86,-0.46,18.7,2022-03-04 10:10:46.491,7
390,8122,-2.03,-1.88,-0.44,18.7,2022-03-04 10:10:46.591,7
391,8144,-2.44,-1.8,0.52,18.7,2022-03-04 10:10:46.699,7
392,8162,-2.57,-1.84,0.45,18.7,2022-03-04 10:10:46.789,7
393,8184,-2.4,-2.05,0.82,18.7,2022-03-04 10:10:46.898,7
394,8204,-2.53,-1.95,0.93,18.7,2022-03-04 10:10:46.998,7
395,8224,-2.72,-1.94,0.77,18.7,2022-03-04 10:10:47.097,7
396,8248,-2.77,-1.76,-0.35,19.8,2022-03-04 10:10:47.198,7
397,8268,-2.9,-1.9,0.67,19.8,2022-03-04 10:10:47.296,7
398,8288,-2.47,-1.76,-0.74,19.8,2022-03-04 10:10:47.395,7
399,8308,-2.98,-1.68,-1.0,19.8,2022-03-04 10:10:47.494,7
400,8330,-2.62,-1.73,0.77,19.8,2022-03-04 10:10:47.595,7
401,8350,-2.73,-1.6,-0.4,19.8,2022-03-04 10:10:47.692,7
402,8370,-3.49,-1.32,1.21,19.8,2022-03-04 10:10:47.791,7
403,8390,-3.06,-1.68,1.15,19.8,2022-03-04 10:10:47.892,7
404,8410,-2.69,-1.8,-1.09,19.8,2022-03-04 10:10:47.990,7
405,8432,-3.05,-1.47,1.01,19.8,2022-03-04 10:10:48.099,7
406,8452,-3.0,-1.44,0.66,19.8,2022-03-04 10:10:48.198,7
407,8476,-3.29,-1.2,1.61,23.0,2022-03-04 10:10:48.297,7
408,8496,-2.51,-1.29,1.74,23.0,2022-03-04 10:10:48.397,7
409,8516,-2.13,-1.22,1.05,23.0,2022-03-04 10:10:48.496,7
410,8538,-1.5,-1.26,-0.77,23.0,2022-03-04 10:10:48.598,7
411,8558,-1.22,-1.15,0.79,23.0,2022-03-04 10:10:48.697,7
412,8578,-1.24,-1.08,0.78,23.0,2022-03-04 10:10:48.798,7
413,8598,-2.17,-1.1,1.95,23.0,2022-03-04 10:10:48.894,7
414,8618,-1.66,-0.88,1.15,23.0,2022-03-04 10:10:48.996,7
415,8638,-1.84,-0.82,-0.65,23.0,2022-03-04 10:10:49.094,7
416,8662,-1.29,-0.87,-0.94,23.0,2022-03-04 10:10:49.194,7
417,8682,-0.88,-0.73,-0.84,23.0,2022-03-04 10:10:49.291,7
418,8704,-0.72,-0.72,0.95,23.0,2022-03-04 10:10:49.399,7
419,8724,0.6,-0.53,-0.41,23.0,2022-03-04 10:10:49.499,7
420,8746,0.47,-0.65,-0.68,23.0,2022-03-04 10:10:49.598,7
421,8766,-0.48,-0.48,-0.57,23.0,2022-03-04 10:10:49.698,7
422,8786,0.63,-0.48,-0.73,23.0,2022-03-04 10:10:49.796,7
423,8806,0.74,-0.58,-0.76,23.0,2022-03-04 10:10:49.896,7
424,8826,0.55,-0.6,0.58,23.0,2022-03-04 10:10:49.995,7
425,8846,0.73,-0.42,0.49,23.0,2022-03-04 10:10:50.096,7
426,8870,1.03,-0.57,-1.01,23.0,2022-03-04 10:10:50.194,7
427,8890,1.37,-0.4,-0.73,23.0,2022-03-04 10:10:50.293,7
428,8910,1.26,-0.53,-0.62,23.0,2022-03-04 10:10:50.393,7
429,8930,1.26,-0.48,-0.98,23.0,2022-03-04 10:10:50.492,7
430,8952,1.64,-0.36,0.68,23.0,2022-03-04 10:10:50.593,7
431,8972,1.27,-0.26,-0.8,23.0,2022-03-04 10:10:50.692,7
432,8994,1.6,-0.42,-1.01,23.0,2022-03-04 10:10:50.799,7
433,9012,1.97,-0.3,0.89,23.0,2022-03-04 10:10:50.889,7
434,9034,1.4,-0.3,0.77,23.0,2022-03-04 10:10:50.998,7
435,9054,1.76,-0.52,0.87,23.0,2022-03-04 10:10:51.098,7
436,9078,1.34,-0.49,-1.46,25.9,2022-03-04 10:10:51.196,7
437,9098,2.0,0.45,-1.44,25.9,2022-03-04 10:10:51.296,7
438,9118,1.84,0.31,1.62,25.9,2022-03-04 10:10:51.395,7
439,9138,1.4,-0.53,0.81,25.9,2022-03-04 10:10:51.495,7
440,9160,1.61,-1.04,-1.97,25.9,2022-03-04 10:10:51.594,7
441,9180,1.67,0.73,1.36,25.9,2022-03-04 10:10:51.694,7
442,9200,1.44,0.41,1.15,25.9,2022-03-04 10:10:51.793,7
443,9220,1.61,-0.38,0.85,25.9,2022-03-04 10:10:51.893,7
444,9240,1.82,-0.29,-0.58,25.9,2022-03-04 10:10:51.991,1
445,9262,1.37,-0.61,1.24,25.9,2022-03-04 10:10:52.099,1
446,9282,0.8,-0.22,0.82,25.9,2022-03-04 10:10:52.199,1
447,9306,0.9,-0.53,-1.08,26.6,2022-03-04 10:10:52.298,1
448,9326,1.02,-0.6,0.97,26.6,2022-03-04 10:10:52.398,1
449,9346,1.34,-0.48,1.49,26.6,2022-03-04 10:10:52.496,1
450,9368,1.44,-0.51,-0.89,26.6,2022-03-04 10:10:52.596,1
451,9388,0.93,-0.44,0.88,26.6,2022-03-04 10:10:52.695,1
452,9408,1.52,-0.49,-0.65,26.6,2022-03-04 10:10:52.794,1
453,9428,0.64,-0.6,0.82,26.6,2022-03-04 10:10:52.894,1
454,9448,1.02,-0.4,0.84,26.6,2022-03-04 10:10:52.994,1
455,9468,0.95,-0.46,0.87,26.6,2022-03-04 10:10:53.094,1
456,9492,0.91,-0.31,-1.07,26.6,2022-03-04 10:10:53.192,1
457,9512,1.07,-0.42,0.81,25.9,2022-03-04 10:10:53.292,1
458,9534,0.76,-0.46,1.35,25.9,2022-03-04 10:10:53.399,1
459,9554,1.09,-0.29,-0.93,25.9,2022-03-04 10:10:53.499,1
460,9576,1.14,-0.41,0.77,25.9,2022-03-04 10:10:53.599,1
461,9596,0.94,0.26,0.65,25.9,2022-03-04 10:10:53.697,1
462,9616,0.87,-0.45,0.88,25.9,2022-03-04 10:10:53.797,1
463,9636,0.63,0.43,0.9,25.9,2022-03-04 10:10:53.896,1
464,9656,0.94,-0.44,-0.86,25.9,2022-03-04 10:10:53.995,1
465,9676,0.91,-0.42,1.46,25.9,2022-03-04 10:10:54.094,1
466,9700,0.8,-0.37,0.68,29.5,2022-03-04 10:10:54.197,1
467,9720,0.99,-0.49,-0.47,29.5,2022-03-04 10:10:54.294,1
468,9740,0.99,-0.62,-1.13,29.5,2022-03-04 10:10:54.393,1
469,9760,0.82,-0.28,0.78,29.5,2022-03-04 10:10:54.492,1
470,9782,0.65,-0.42,-0.72,29.5,2022-03-04 10:10:54.591,1
471,9804,0.88,-0.4,-1.21,29.5,2022-03-04 10:10:54.699,1
472,9824,0.82,-0.37,0.82,29.5,2022-03-04 10:10:54.799,1
473,9844,-0.67,-0.33,-0.93,29.5,2022-03-04 10:10:54.898,1
474,9864,0.8,-0.44,-0.96,29.5,2022-03-04 10:10:54.997,1
475,9884,-0.43,-0.38,-0.8,29.5,2022-03-04 10:10:55.097,1
476,9908,0.93,-0.68,-0.83,33.1,2022-03-04 10:10:55.196,1
477,9928,1.05,-1.32,-1.12,33.1,2022-03-04 10:10:55.295,1
478,9948,0.64,-1.37,-0.77,33.1,2022-03-04 10:10:55.394,1
479,9968,-1.07,-1.3,-1.02,33.1,2022-03-04 10:10:55.494,1
480,9990,0.79,-1.31,0.72,33.1,2022-03-04 10:10:55.593,1
481,10010,0.74,-1.21,0.8,33.1,2022-03-04 10:10:55.694,1
482,10030,0.5,-1.25,0.6,33.1,2022-03-04 10:10:55.792,1
483,10050,0.76,-1.05,0.68,33.1,2022-03-04 10:10:55.893,1
484,10070,0.46,-1.25,-0.44,33.1,2022-03-04 10:10:55.991,1
485,10090,0.54,-1.14,1.21,33.1,2022-03-04 10:10:56.093,1
486,10112,0.59,-0.61,1.11,33.1,2022-03-04 10:10:56.199,1
487,10136,0.38,-0.51,0.82,35.3,2022-03-04 10:10:56.298,1
488,10156,0.74,-0.48,-0.77,35.3,2022-03-04 10:10:56.397,1
489,10176,0.92,-0.36,-0.76,35.3,2022-03-04 10:10:56.497,1
490,10198,0.65,0.19,-0.96,35.3,2022-03-04 10:10:56.596,1
491,10218,1.04,0.3,0.79,35.3,2022-03-04 10:10:56.696,1
492,10238,0.85,-0.55,-0.71,35.3,2022-03-04 10:10:56.794,1
493,10258,0.79,-0.42,0.66,35.3,2022-03-04 10:10:56.894,1
494,10278,1.22,-0.53,-0.5,35.3,2022-03-04 10:10:56.994,1
495,10298,-1.35,-0.72,-1.0,35.3,2022-03-04 10:10:57.099,1
496,10322,-1.0,-0.43,0.94,36.4,2022-03-04 10:10:57.192,1
497,10342,0.72,-0.37,0.84,36.4,2022-03-04 10:10:57.294,1
498,10362,1.11,-0.49,0.67,36.4,2022-03-04 10:10:57.390,1
499,10384,0.76,-0.5,-1.27,36.4,2022-03-04 10:10:57.499,1
500,10406,0.83,0.42,1.58,36.4,2022-03-04 10:10:57.599,1
501,10426,1.11,0.45,-0.75,36.4,2022-03-04 10:10:57.699,1
502,10446,0.77,0.39,0.55,36.4,2022-03-04 10:10:57.797,1
503,10466,0.88,0.5,1.28,36.4,2022-03-04 10:10:57.896,1
504,10486,1.42,-0.47,0.99,36.4,2022-03-04 10:10:57.995,1
505,10506,1.02,-0.7,0.51,36.4,2022-03-04 10:10:58.095,1
506,10530,0.63,-0.44,0.62,37.4,2022-03-04 10:10:58.194,1
507,10550,0.87,-0.5,-0.56,37.4,2022-03-04 10:10:58.293,1
508,10570,0.91,-0.7,-0.63,37.4,2022-03-04 10:10:58.393,1
509,10590,1.04,-0.62,-1.0,37.4,2022-03-04 10:10:58.492,1
510,10612,0.98,-0.53,0.87,37.4,2022-03-04 10:10:58.591,1
511,10632,0.71,-0.54,-0.76,37.4,2022-03-04 10:10:58.690,1
512,10652,1.24,-0.53,0.69,37.4,2022-03-04 10:10:58.790,1
513,10674,1.27,-0.71,1.0,37.4,2022-03-04 10:10:58.899,1
514,10694,0.99,-0.29,-0.47,37.4,2022-03-04 10:10:58.998,1
515,10714,-1.15,-0.34,0.79,37.4,2022-03-04 10:10:59.097,1
516,10738,-1.25,-0.52,1.19,39.2,2022-03-04 10:10:59.197,1
517,10758,0.82,-0.62,-1.18,39.2,2022-03-04 10:10:59.296,1
518,10778,-0.75,-0.75,-0.71,39.2,2022-03-04 10:10:59.395,1
519,10798,0.89,-0.43,-0.92,39.2,2022-03-04 10:10:59.494,1
520,10820,1.09,-0.55,-0.78,39.2,2022-03-04 10:10:59.594,1
521,10840,1.24,-0.73,0.73,39.2,2022-03-04 10:10:59.693,1
522,10860,1.51,-0.68,-0.42,39.2,2022-03-04 10:10:59.794,1
523,10880,-0.98,-0.55,1.05,39.2,2022-03-04 10:10:59.891,1
524,10900,1.2,-0.52,0.9,39.2,2022-03-04 10:10:59.991,1
525,10920,-0.66,-0.83,-1.0,39.2,2022-03-04 10:11:00.091,1
526,10940,0.8,-0.55,-0.97,39.2,2022-03-04 10:11:00.193,1
527,10966,0.97,-0.66,-0.56,40.7,2022-03-04 10:11:00.299,1
528,10986,0.73,-0.65,-0.95,40.7,2022-03-04 10:11:00.398,1
529,11006,-0.72,-0.63,-0.92,40.7,2022-03-04 10:11:00.497,1
530,11028,0.4,-0.57,0.93,40.7,2022-03-04 10:11:00.596,1
531,11048,1.12,-0.55,1.32,40.7,2022-03-04 10:11:00.696,1
532,11068,0.81,-0.42,1.12,40.7,2022-03-04 10:11:00.795,1
533,11088,0.62,-0.88,1.07,40.7,2022-03-04 10:11:00.894,1
534,11108,-1.62,-0.48,1.4,40.7,2022-03-04 10:11:00.994,1
535,11128,1.48,-0.5,-1.46,40.7,2022-03-04 10:11:01.092,1
536,11152,1.44,-0.63,1.2,41.8,2022-03-04 10:11:01.193,1
537,11172,0.67,-0.59,-1.19,41.8,2022-03-04 10:11:01.291,1
538,11192,0.86,-0.68,-1.19,41.8,2022-03-04 10:11:01.390,1
539,11212,0.57,-0.65,1.09,41.8,2022-03-04 10:11:01.490,1
540,11236,0.98,-0.5,-0.7,41.8,2022-03-04 10:11:01.599,1
541,11256,0.79,-0.43,-0.95,41.8,2022-03-04 10:11:01.699,1
542,11276,0.94,-0.61,1.35,41.8,2022-03-04 10:11:01.797,1
543,11296,-1.39,0.4,-0.97,41.8,2022-03-04 10:11:01.896,1
544,11316,0.67,-0.76,-0.9,41.8,2022-03-04 10:11:01.996,1
545,11336,1.02,-0.87,-1.35,41.8,2022-03-04 10:11:02.096,1
546,11360,0.73,-0.65,-0.84,43.2,2022-03-04 10:11:02.194,1
547,11380,0.71,-0.75,1.37,43.2,2022-03-04 10:11:02.295,1
548,11400,0.62,-0.49,1.52,43.2,2022-03-04 10:11:02.393,1
549,11420,0.82,-0.39,1.03,43.2,2022-03-04 10:11:02.492,1
550,11442,-0.85,-0.5,0.6,43.2,2022-03-04 10:11:02.591,1
551,11462,1.67,-0.55,1.14,43.2,2022-03-04 10:11:02.691,1
552,11482,0.89,-0.51,-1.51,43.2,2022-03-04 10:11:02.790,1
553,11504,0.64,-0.57,1.26,43.2,2022-03-04 10:11:02.899,1
554,11524,1.03,-0.57,-1.5,43.2,2022-03-04 10:11:02.998,1
555,11542,0.74,-1.22,-1.08,43.2,2022-03-04 10:11:03.089,1
556,11568,0.77,-1.18,-0.92,44.3,2022-03-04 10:11:03.198,1
557,11588,0.86,-1.31,0.71,44.3,2022-03-04 10:11:03.296,1
558,11608,0.93,-1.16,0.74,44.3,2022-03-04 10:11:03.396,1
559,11628,0.57,-0.99,-1.3,44.3,2022-03-04 10:11:03.494,1
560,11650,1.02,-1.14,-0.55,44.3,2022-03-04 10:11:03.595,1
561,11670,1.11,-1.09,0.78,44.3,2022-03-04 10:11:03.693,1
562,11690,0.47,-1.05,0.78,44.3,2022-03-04 10:11:03.793,1
563,11710,1.05,-1.15,-0.83,44.3,2022-03-04 10:11:03.892,1
564,11730,1.26,-1.13,0.58,44.3,2022-03-04 10:11:03.991,1
565,11750,0.98,-1.13,1.09,44.3,2022-03-04 10:11:04.090,1
566,11774,0.53,-1.12,1.16,45.4,2022-03-04 10:11:04.192,1
567,11794,0.66,-1.1,-0.8,45.4,2022-03-04 10:11:04.289,1
568,11814,0.76,-1.15,-0.57,45.4,2022-03-04 10:11:04.389,1
569,11836,0.74,-1.06,0.84,45.4,2022-03-04 10:11:04.498,1
570,11858,0.84,-0.61,-0.52,45.4,2022-03-04 10:11:04.597,1
571,11878,0.58,-0.36,-0.96,45.4,2022-03-04 10:11:04.697,1
572,11898,0.74,-0.23,-0.79,45.4,2022-03-04 10:11:04.796,1
573,11918,0.77,-0.66,-1.22,45.4,2022-03-04 10:11:04.895,1
574,11938,0.52,-0.46,0.84,45.4,2022-03-04 10:11:04.994,1
575,11958,0.62,-0.47,-0.87,45.4,2022-03-04 10:11:05.094,1
576,11982,0.7,0.56,-1.57,45.4,2022-03-04 10:11:05.192,1
577,12002,0.71,-0.34,-1.18,45.4,2022-03-04 10:11:05.291,1
578,12022,0.72,-0.55,0.76,45.4,2022-03-04 10:11:05.392,1
579,12042,0.77,-0.24,0.99,45.4,2022-03-04 10:11:05.490,1
580,12066,0.85,0.36,-0.5,45.4,2022-03-04 10:11:05.599,1
581,12086,0.91,0.33,0.9,45.4,2022-03-04 10:11:05.699,1
582,12104,0.68,0.3,-0.93,45.4,2022-03-04 10:11:05.794,1
583,12126,-0.38,0.35,1.14,45.4,2022-03-04 10:11:05.897,1
584,12146,-0.6,0.39,-0.76,45.4,2022-03-04 10:11:05.996,1
585,12166,0.69,0.62,-0.94,45.4,2022-03-04 10:11:06.096,1
586,12190,-0.96,0.48,1.12,46.8,2022-03-04 10:11:06.194,1
587,12210,-0.51,0.37,0.61,46.8,2022-03-04 10:11:06.294,1
588,12230,-1.04,-0.28,0.5,46.8,2022-03-04 10:11:06.393,1
589,12250,-0.88,0.43,-0.82,46.8,2022-03-04 10:11:06.492,1
590,12272,-0.96,0.65,1.14,46.8,2022-03-04 10:11:06.591,1
591,12292,-0.86,0.67,-1.04,46.8,2022-03-04 10:11:06.691,1
592,12312,-0.87,0.52,-1.11,46.8,2022-03-04 10:11:06.790,1
593,12332,-0.8,0.51,-0.76,46.8,2022-03-04 10:11:06.889,1
594,12354,-0.72,0.48,-1.16,46.8,2022-03-04 10:11:06.999,1
595,12372,-0.84,-0.37,0.69,46.8,2022-03-04 10:11:07.089,1
596,12398,1.14,-0.26,-1.55,48.2,2022-03-04 10:11:07.198,1
597,12418,-0.35,-0.65,-0.84,48.2,2022-03-04 10:11:07.298,1
598,12438,-0.43,-0.4,1.81,48.2,2022-03-04 10:11:07.396,1
599,12458,-0.87,-0.59,-1.07,48.2,2022-03-04 10:11:07.495,10
600,12480,1.05,-0.54,-0.7,48.2,2022-03-04 10:11:07.594,10
601,12500,0.48,-1.03,0.81,48.2,2022-03-04 10:11:07.694,10
602,12520,0.59,-0.88,-0.73,48.2,2022-03-04 10:11:07.793,10
603,12540,0.78,-1.07,-1.35,48.2,2022-03-04 10:11:07.893,10
604,12560,1.06,-0.88,1.11,48.2,2022-03-04 10:11:07.991,10
605,12580,0.51,-0.77,-0.94,48.2,2022-03-04 10:11:08.091,10
606,12601,0.86,-0.91,-1.62,48.2,2022-03-04 10:11:08.190,10
607,12624,-0.5,-0.99,-1.77,48.2,2022-03-04 10:11:08.289,10
608,12644,0.61,-1.44,1.34,48.2,2022-03-04 10:11:08.389,10
609,12666,-1.47,-1.61,-1.48,48.2,2022-03-04 10:11:08.499,10
610,12688,0.99,-1.4,1.39,48.2,2022-03-04 10:11:08.597,10
611,12708,-1.75,-1.21,-2.19,48.2,2022-03-04 10:11:08.697,10
612,12728,-1.13,-1.17,-0.94,48.2,2022-03-04 10:11:08.798,10
613,12748,-0.79,-0.96,0.85,48.2,2022-03-04 10:11:08.894,10
614,12768,-0.98,-1.1,1.1,48.2,2022-03-04 10:11:08.995,10
615,12788,0.52,-1.17,-0.95,48.2,2022-03-04 10:11:09.095,10
616,12812,0.91,-1.04,1.21,48.2,2022-03-04 10:11:09.192,10
617,12832,0.63,-1.07,-1.3,46.8,2022-03-04 10:11:09.291,10
618,12852,0.55,-0.98,-1.37,46.8,2022-03-04 10:11:09.391,10
619,12872,0.72,-0.89,0.6,46.8,2022-03-04 10:11:09.490,10
620,12894,0.72,-0.85,1.05,46.8,2022-03-04 10:11:09.590,10
621,12914,1.22,-0.75,1.19,46.8,2022-03-04 10:11:09.688,10
622,12934,0.51,-0.94,-1.12,46.8,2022-03-04 10:11:09.788,10
623,12956,0.72,-1.18,0.75,46.8,2022-03-04 10:11:09.898,10
624,12976,0.47,-1.29,-0.84,46.8,2022-03-04 10:11:09.996,10
625,12996,0.34,-1.34,-0.81,46.8,2022-03-04 10:11:10.096,10
626,13020,-0.84,-1.29,-0.72,46.8,2022-03-04 10:11:10.197,10
627,13040,1.01,-1.31,-0.9,46.1,2022-03-04 10:11:10.294,10
628,13060,1.43,-1.5,1.03,46.1,2022-03-04 10:11:10.396,10
629,13080,0.66,-1.26,-0.65,46.1,2022-03-04 10:11:10.492,10
630,13102,0.71,-1.18,-1.11,46.1,2022-03-04 10:11:10.592,10
631,13122,-1.19,-1.13,-0.96,46.1,2022-03-04 10:11:10.691,10
632,13142,0.55,-1.17,1.18,46.1,2022-03-04 10:11:10.790,10
633,13162,0.56,-1.17,-1.02,46.1,2022-03-04 10:11:10.890,10
634,13182,0.97,-1.31,0.96,46.1,2022-03-04 10:11:10.990,10
635,13204,1.21,-1.28,-1.45,46.1,2022-03-04 10:11:11.099,4
636,13224,0.98,-1.14,-1.33,46.1,2022-03-04 10:11:11.199,4
637,13248,0.65,-1.2,1.43,44.6,2022-03-04 10:11:11.297,4
638,13268,0.94,-1.04,-1.28,44.6,2022-03-04 10:11:11.397,4
639,13288,-0.4,-1.21,-0.95,44.6,2022-03-04 10:11:11.497,4
640,13310,0.77,-1.31,1.27,44.6,2022-03-04 10:11:11.596,4
641,13330,0.44,-1.24,-1.92,44.6,2022-03-04 10:11:11.696,4
642,13350,0.85,-1.39,-0.83,44.6,2022-03-04 10:11:11.795,4
643,13370,0.71,-1.62,0.77,44.6,2022-03-04 10:11:11.892,4
644,13390,0.78,-1.37,-1.28,44.6,2022-03-04 10:11:11.992,4
645,13410,0.36,-1.67,0.81,44.6,2022-03-04 10:11:12.091,4
646,13434,0.63,-1.61,-0.89,44.6,2022-03-04 10:11:12.190,4
647,13454,0.75,-1.55,-0.54,42.1,2022-03-04 10:11:12.289,4
648,13476,0.63,-1.52,0.66,42.1,2022-03-04 10:11:12.399,4
649,13494,0.46,-1.45,-0.71,42.1,2022-03-04 10:11:12.488,4
650,13518,0.61,-1.51,-0.89,42.1,2022-03-04 10:11:12.597,4
651,13538,0.57,-1.57,-0.44,42.1,2022-03-04 10:11:12.698,4
652,13558,0.65,-1.54,0.97,42.1,2022-03-04 10:11:12.796,4
653,13578,0.75,-1.56,-1.35,42.1,2022-03-04 10:11:12.897,4
654,13598,-0.68,-1.5,-0.82,42.1,2022-03-04 10:11:12.996,4
655,13618,0.88,-1.73,0.81,42.1,2022-03-04 10:11:13.095,4
656,13642,0.7,-1.75,1.32,42.1,2022-03-04 10:11:13.194,4
657,13662,0.77,-1.62,-1.1,37.8,2022-03-04 10:11:13.292,4
658,13682,-0.58,-1.51,-0.77,37.8,2022-03-04 10:11:13.391,4
659,13702,0.56,-1.45,-0.64,37.8,2022-03-04 10:11:13.491,4
660,13726,0.5,-1.52,0.75,37.8,2022-03-04 10:11:13.599,4
661,13744,0.42,-1.57,0.41,37.8,2022-03-04 10:11:13.689,4
662,13766,0.45,-1.47,-1.06,37.8,2022-03-04 10:11:13.799,4
663,13786,0.58,-1.36,-0.59,37.8,2022-03-04 10:11:13.898,4
664,13806,0.4,-1.41,0.49,37.8,2022-03-04 10:11:13.997,4
665,13826,0.32,-1.39,0.41,37.8,2022-03-04 10:11:14.097,4
666,13850,0.54,-1.43,-1.08,37.8,2022-03-04 10:11:14.197,4
667,13870,0.51,-1.35,-1.07,33.5,2022-03-04 10:11:14.295,4
668,13890,0.65,-1.43,0.64,33.5,2022-03-04 10:11:14.396,4
669,13910,0.55,-1.24,0.56,33.5,2022-03-04 10:11:14.493,4
670,13932,-0.32,-1.39,0.42,33.5,2022-03-04 10:11:14.594,4
671,13952,-0.42,-1.33,-1.63,33.5,2022-03-04 10:11:14.694,4
672,13972,-0.62,-1.43,-0.82,33.5,2022-03-04 10:11:14.791,4
673,13992,-0.78,-1.36,0.6,33.5,2022-03-04 10:11:14.890,4
674,14012,-0.58,-1.24,-0.36,33.5,2022-03-04 10:11:14.989,4
675,14034,0.32,-1.11,0.5,33.5,2022-03-04 10:11:15.098,4
676,14054,-0.67,-1.27,-1.05,33.5,2022-03-04 10:11:15.199,4
677,14078,-0.61,-1.16,-0.82,33.5,2022-03-04 10:11:15.297,4
678,14098,-0.19,-1.11,0.48,28.8,2022-03-04 10:11:15.398,4
679,14118,-0.45,-1.07,0.48,28.8,2022-03-04 10:11:15.497,4
680,14140,-0.25,-1.08,-0.48,28.8,2022-03-04 10:11:15.597,4
681,14160,0.17,-1.05,-0.47,28.8,2022-03-04 10:11:15.694,4
682,14180,-0.42,-1.02,-0.74,28.8,2022-03-04 10:11:15.794,4
683,14200,-0.43,-0.95,-0.68,28.8,2022-03-04 10:11:15.893,4
684,14220,-0.39,-0.97,0.56,28.8,2022-03-04 10:11:15.994,4
685,14240,0.43,-1.07,0.26,28.8,2022-03-04 10:11:16.096,4
686,14264,-0.45,-0.91,-0.84,28.8,2022-03-04 10:11:16.192,4
687,14284,-0.35,-0.88,-0.66,24.1,2022-03-04 10:11:16.290,4
688,14306,-0.35,-0.88,-0.44,24.1,2022-03-04 10:11:16.399,4
689,14326,-0.25,-0.89,-0.43,24.1,2022-03-04 10:11:16.498,4
690,14348,-0.41,-0.95,0.27,24.1,2022-03-04 10:11:16.599,4
691,14368,0.32,-0.94,0.43,24.1,2022-03-04 10:11:16.697,4
692,14388,0.39,-1.11,-0.41,24.1,2022-03-04 10:11:16.796,4
693,14408,0.64,-0.95,0.44,24.1,2022-03-04 10:11:16.897,4
694,14428,0.44,-0.84,-0.5,24.1,2022-03-04 10:11:16.994,4
695,14448,0.31,-0.94,-0.59,24.1,2022-03-04 10:11:17.096,4
696,14472,-0.26,-0.96,-0.62,24.1,2022-03-04 10:11:17.193,4
697,14492,0.29,-0.92,0.47,18.7,2022-03-04 10:11:17.293,4
698,14512,0.39,-0.92,0.43,18.7,2022-03-04 10:11:17.391,4
699,14532,0.41,-0.92,0.31,18.7,2022-03-04 10:11:17.493,4
700,14554,0.35,-0.91,0.29,18.7,2022-03-04 10:11:17.591,4
701,14576,0.45,-0.96,-0.57,18.7,2022-03-04 10:11:17.699,4
702,14596,0.27,-0.81,-0.61,18.7,2022-03-04 10:11:17.799,4
703,14616,-0.25,-0.35,-0.43,18.7,2022-03-04 10:11:17.899,4
704,14636,0.29,-0.26,0.28,18.7,2022-03-04 10:11:17.997,4
705,14656,0.49,-0.19,0.33,18.7,2022-03-04 10:11:18.097,4
706,14680,0.33,-0.22,-0.44,18.7,2022-03-04 10:11:18.197,4
707,14700,0.2,-0.29,-0.3,13.3,2022-03-04 10:11:18.295,4
708,14720,-0.35,-0.32,-0.25,13.3,2022-03-04 10:11:18.394,4
709,14740,-0.33,-0.37,-0.45,13.3,2022-03-04 10:11:18.495,4
710,14762,0.21,-0.32,0.27,13.3,2022-03-04 10:11:18.594,4
711,14782,0.29,-0.38,-0.39,13.3,2022-03-04 10:11:18.692,4
712,14802,0.25,-0.51,-0.43,13.3,2022-03-04 10:11:18.794,4
713,14822,0.26,-0.56,0.38,13.3,2022-03-04 10:11:18.892,4
714,14844,0.25,-0.53,-0.49,13.3,2022-03-04 10:11:18.999,4
715,14864,0.52,-0.51,0.26,13.3,2022-03-04 10:11:19.099,4
716,14884,0.43,-0.56,-0.27,13.3,2022-03-04 10:11:19.198,4
717,14908,0.35,-0.48,-0.51,13.3,2022-03-04 10:11:19.297,4
718,14928,0.28,-0.5,-0.41,8.6,2022-03-04 10:11:19.397,4
719,14948,0.23,-0.51,-0.24,8.6,2022-03-04 10:11:19.496,4
720,14970,0.43,-0.55,-0.43,8.6,2022-03-04 10:11:19.595,4
721,14990,0.28,-0.5,-0.33,8.6,2022-03-04 10:11:19.695,4
722,15010,0.3,-0.57,-0.23,8.6,2022-03-04 10:11:19.794,4
723,15030,0.25,-0.51,-0.29,8.6,2022-03-04 10:11:19.894,4
724,15050,0.36,-0.4,-0.21,8.6,2022-03-04 10:11:19.992,4
725,15070,0.29,-0.15,-0.27,8.6,2022-03-04 10:11:20.092,4
726,15090,0.2,0.29,-0.21,8.6,2022-03-04 10:11:20.198,4
727,15114,0.2,0.38,-0.18,8.6,2022-03-04 10:11:20.292,4
728,15134,0.15,0.31,-0.18,3.6,2022-03-04 10:11:20.390,4
729,15156,0.22,0.33,-0.23,3.6,2022-03-04 10:11:20.499,4
730,15178,0.17,0.28,-0.24,3.6,2022-03-04 10:11:20.598,4
731,15198,0.19,0.32,-0.16,3.6,2022-03-04 10:11:20.697,4
732,15218,0.16,0.32,-0.17,3.6,2022-03-04 10:11:20.796,4
733,15238,-0.16,0.35,-0.21,3.6,2022-03-04 10:11:20.896,4
734,15258,0.16,0.42,-0.2,3.6,2022-03-04 10:11:20.996,4
735,15278,-0.2,0.71,-0.21,3.6,2022-03-04 10:11:21.098,4
736,15302,-0.17,1.21,-0.21,3.6,2022-03-04 10:11:21.194,4
737,15322,-0.25,1.25,-0.26,0.7,2022-03-04 10:11:21.293,4
738,15342,-0.2,1.32,-0.25,0.7,2022-03-04 10:11:21.392,4
739,15362,-0.26,1.09,-0.27,0.7,2022-03-04 10:11:21.491,4
740,15384,-0.14,0.92,-0.22,0.7,2022-03-04 10:11:21.591,4
741,15406,-0.15,0.8,-0.17,0.7,2022-03-04 10:11:21.699,4
742,15426,0.17,0.86,-0.22,0.7,2022-03-04 10:11:21.799,4
743,15446,-0.19,0.86,-0.32,0.7,2022-03-04 10:11:21.898,4
744,15466,-0.22,0.84,-0.23,0.7,2022-03-04 10:11:21.997,4
745,15486,-0.18,0.76,-0.29,0.7,2022-03-04 10:11:22.097,4
746,15510,-0.25,0.66,-0.25,0.7,2022-03-04 10:11:22.197,4
747,15530,-0.17,0.63,-0.23,0.0,2022-03-04 10:11:22.295,4
748,15550,-0.17,0.54,-0.25,0.0,2022-03-04 10:11:22.394,4
749,15570,-0.15,0.47,-0.27,0.0,2022-03-04 10:11:22.494,4
750,15592,-0.19,0.49,-0.25,0.0,2022-03-04 10:11:22.594,4
751,15612,-0.23,0.44,-0.25,0.0,2022-03-04 10:11:22.693,4
752,15632,-0.15,0.42,-0.21,0.0,2022-03-04 10:11:22.792,4
753,15652,-0.16,0.39,-0.26,0.0,2022-03-04 10:11:22.892,4
754,15672,-0.17,0.32,-0.29,0.0,2022-03-04 10:11:22.990,4
755,15694,-0.18,0.34,-0.23,0.0,2022-03-04 10:11:23.099,4
756,15718,-0.17,0.28,-0.31,0.4,2022-03-04 10:11:23.198,4
757,15738,-0.16,0.29,-0.29,0.4,2022-03-04 10:11:23.298,4
758,15758,-0.19,0.28,-0.2,0.4,2022-03-04 10:11:23.397,4
759,15778,-0.15,0.26,-0.26,0.4,2022-03-04 10:11:23.497,4
760,15800,-0.19,0.26,-0.26,0.4,2022-03-04 10:11:23.596,4
761,15820,-0.16,0.27,-0.26,0.4,2022-03-04 10:11:23.695,4
762,15840,-0.19,0.24,-0.22,0.4,2022-03-04 10:11:23.794,4
763,15860,-0.15,0.19,-0.23,0.4,2022-03-04 10:11:23.893,0
764,15880,0.15,0.19,-0.26,0.4,2022-03-04 10:11:23.993,0
765,15900,-0.21,0.2,-0.28,0.4,2022-03-04 10:11:24.093,0
766,15920,-0.12,0.19,-0.28,0.4,2022-03-04 10:11:24.192,0
767,15944,0.2,0.18,-0.31,0.7,2022-03-04 10:11:24.291,0
768,15964,0.21,0.15,-0.26,0.7,2022-03-04 10:11:24.392,0
769,15986,-0.24,0.18,-0.27,0.7,2022-03-04 10:11:24.499,0
770,16008,-0.17,0.17,-0.2,0.7,2022-03-04 10:11:24.598,0
771,16028,0.13,0.17,-0.26,0.7,2022-03-04 10:11:24.697,0
772,16048,-0.22,0.14,-0.25,0.7,2022-03-04 10:11:24.797,0
773,16068,-0.21,0.13,-0.33,0.7,2022-03-04 10:11:24.896,0
774,16088,-0.19,0.21,-0.32,0.7,2022-03-04 10:11:24.995,0
775,16108,0.17,0.18,-0.26,0.7,2022-03-04 10:11:25.095,0
776,16132,-0.23,0.16,-0.27,1.1,2022-03-04 10:11:25.194,0
777,16152,-0.19,0.16,-0.22,1.1,2022-03-04 10:11:25.293,0
778,16172,-0.2,0.14,-0.28,1.1,2022-03-04 10:11:25.392,0
779,16192,-0.23,0.13,-0.25,1.1,2022-03-04 10:11:25.491,0
780,16214,-0.23,0.17,-0.27,1.1,2022-03-04 10:11:25.591,0
781,16234,-0.19,0.13,-0.2,1.1,2022-03-04 10:11:25.691,0
782,16254,-0.2,0.16,-0.25,1.1,2022-03-04 10:11:25.791,0
783,16276,-0.2,0.13,-0.27,1.1,2022-03-04 10:11:25.898,0
784,16296,-0.23,0.14,-0.25,1.1,2022-03-04 10:11:25.998,0
785,16316,0.14,0.15,-0.25,1.1,2022-03-04 10:11:26.097,0
786,16340,-0.19,0.13,-0.25,1.1,2022-03-04 10:11:26.196,0
787,16360,-0.18,0.17,-0.27,0.0,2022-03-04 10:11:26.296,0
788,16380,-0.19,0.12,-0.23,0.0,2022-03-04 10:11:26.395,0
789,16400,-0.21,0.15,-0.29,0.0,2022-03-04 10:11:26.495,0
790,16422,-0.17,0.16,-0.27,0.0,2022-03-04 10:11:26.594,0
791,16442,-0.22,0.17,-0.21,0.0,2022-03-04 10:11:26.693,0
792,16462,-0.19,0.1,-0.21,0.0,2022-03-04 10:11:26.792,0
793,16482,-0.22,0.15,-0.34,0.0,2022-03-04 10:11:26.891,0
794,16502,0.14,0.16,-0.22,0.0,2022-03-04 10:11:26.990,0
795,16522,-0.22,0.17,-0.22,0.0,2022-03-04 10:11:27.090,0
796,16546,-0.16,0.13,-0.21,0.0,2022-03-04 10:11:27.191,0
797,16568,-0.21,0.11,-0.3,0.0,2022-03-04 10:11:27.298,0
798,16588,0.14,0.15,-0.25,0.0,2022-03-04 10:11:27.397,0
799,16608,-0.18,0.17,-0.19,0.0,2022-03-04 10:11:27.496,0
800,16630,0.13,0.14,-0.26,0.0,2022-03-04 10:11:27.598,0
801,16650,-0.17,0.13,-0.25,0.0,2022-03-04 10:11:27.695,0
802,16670,0.14,0.11,-0.23,0.0,2022-03-04 10:11:27.798,0
803,16690,-0.15,0.15,-0.25,0.0,2022-03-04 10:11:27.894,0
804,16710,0.12,0.15,-0.26,0.0,2022-03-04 10:11:27.993,0
805,16730,-0.17,0.15,-0.26,0.0,2022-03-04 10:11:28.092,0
806,16754,0.16,0.14,-0.25,0.0,2022-03-04 10:11:28.193,0
807,16774,-0.17,0.12,-0.23,0.0,2022-03-04 10:11:28.290,0
808,16794,-0.15,0.14,-0.27,0.0,2022-03-04 10:11:28.390,0
809,16814,0.16,0.1,-0.27,0.0,2022-03-04 10:11:28.490,0
810,16836,0.13,0.15,-0.26,0.0,2022-03-04 10:11:28.589,0
811,16858,-0.16,0.09,-0.26,0.0,2022-03-04 10:11:28.698,0
812,16878,-0.18,0.08,-0.23,0.0,2022-03-04 10:11:28.797,0
813,16898,0.18,0.16,-0.24,0.0,2022-03-04 10:11:28.896,0
814,16918,-0.14,0.11,-0.25,0.0,2022-03-04 10:11:28.996,0
815,16938,-0.22,0.13,-0.2,0.0,2022-03-04 10:11:29.096,0
816,16958,-0.21,0.1,-0.28,0.0,2022-03-04 10:11:29.196,0
817,16982,-0.21,0.09,-0.25,0.0,2022-03-04 10:11:29.293,0
818,17002,-0.21,0.13,-0.22,0.0,2022-03-04 10:11:29.392,0
819,17022,0.16,0.09,-0.29,0.0,2022-03-04 10:11:29.493,0
820,17044,-0.21,0.11,-0.25,0.0,2022-03-04 10:11:29.591,0
821,17064,0.18,0.13,-0.25,0.0,2022-03-04 10:11:29.691,0
822,17084,-0.18,0.1,-0.24,0.0,2022-03-04 10:11:29.789,0
823,17104,-0.19,0.1,-0.2,0.0,2022-03-04 10:11:29.889,0
824,17124,0.14,0.11,-0.28,0.0,2022-03-04 10:11:29.988,0
825,17146,-0.21,0.15,-0.26,0.0,2022-03-04 10:11:30.099,0
826,17168,-0.14,0.09,-0.26,0.0,2022-03-04 10:11:30.198,0
827,17190,-0.21,0.16,-0.22,0.0,2022-03-04 10:11:30.296,0
828,17208,0.19,0.12,-0.31,0.0,2022-03-04 10:11:30.386,0
829,17230,-0.21,0.11,-0.3,0.0,2022-03-04 10:11:30.494,0
830,17252,-0.17,0.11,-0.24,0.0,2022-03-04 10:11:30.594,0
831,17272,0.16,0.09,-0.22,0.0,2022-03-04 10:11:30.693,0
832,17292,-0.23,0.1,-0.29,0.0,2022-03-04 10:11:30.792,0
833,17312,-0.21,-0.14,-0.4,0.0,2022-03-04 10:11:30.891,0
834,17332,-0.2,0.1,-0.23,0.0,2022-03-04 10:11:30.991,0
835,17352,0.16,0.17,-0.24,0.0,2022-03-04 10:11:31.090,0
836,17376,-0.21,-0.14,-0.17,0.0,2022-03-04 10:11:31.190,0
837,17398,-0.25,-0.18,-0.4,0.0,2022-03-04 10:11:31.299,0
838,17418,-0.21,0.15,-0.24,0.0,2022-03-04 10:11:31.399,0
839,17438,0.14,0.11,-0.23,0.0,2022-03-04 10:11:31.498,0
840,17458,-0.2,0.13,-0.25,0.0,2022-03-04 10:11:31.586,0
841,17480,0.15,0.08,-0.25,0.0,2022-03-04 10:11:31.696,0
842,17500,-0.18,0.12,-0.21,0.0,2022-03-04 10:11:31.795,0
843,17520,0.19,0.09,-0.28,0.0,2022-03-04 10:11:31.894,0
844,17540,-0.19,0.13,-0.27,0.0,2022-03-04 10:11:31.994,0
845,17560,0.17,0.14,-0.25,0.0,2022-03-04 10:11:32.093,0
846,17578,0.14,0.08,-0.19,0.0,2022-03-04 10:11:32.173,0
