,LineNumber,Accel_X,Accel_Y,Accel_Z,Velocity,RealTime,Label
0,22,-0.2,0.13,-0.31,0.0,2022-03-04 10:49:50.791,0
1,42,-0.14,0.19,-0.3,0.0,2022-03-04 10:49:50.891,0
2,64,0.16,0.24,-0.31,0.0,2022-03-04 10:49:50.999,0
3,84,-0.71,0.3,-0.23,0.0,2022-03-04 10:49:51.098,0
4,108,0.29,0.2,-0.32,0.0,2022-03-04 10:49:51.197,0
5,128,-0.21,0.17,-0.3,0.0,2022-03-04 10:49:51.296,0
6,148,-0.13,0.19,-0.27,0.0,2022-03-04 10:49:51.396,0
7,168,0.13,0.2,-0.28,0.0,2022-03-04 10:49:51.495,0
8,190,-0.18,0.17,-0.19,0.0,2022-03-04 10:49:51.594,0
9,210,-0.16,0.2,-0.29,0.0,2022-03-04 10:49:51.694,0
10,230,-0.23,0.2,-0.29,0.0,2022-03-04 10:49:51.793,0
11,250,-0.15,0.19,-0.37,0.0,2022-03-04 10:49:51.892,0
12,270,0.16,0.24,-0.31,0.0,2022-03-04 10:49:51.991,0
13,290,-0.19,0.26,-0.26,0.0,2022-03-04 10:49:52.091,0
14,314,-0.22,0.18,-0.28,0.0,2022-03-04 10:49:52.192,0
15,334,-0.21,0.2,-0.3,0.0,2022-03-04 10:49:52.290,0
16,356,-0.21,0.22,-0.29,0.0,2022-03-04 10:49:52.398,0
17,376,-0.16,0.18,-0.29,0.0,2022-03-04 10:49:52.498,2
18,398,-0.19,0.19,-0.21,0.0,2022-03-04 10:49:52.598,2
19,418,-0.22,0.89,0.39,0.0,2022-03-04 10:49:52.696,2
20,438,-0.77,1.51,-0.64,0.0,2022-03-04 10:49:52.797,2
21,458,-0.77,1.91,-0.65,0.0,2022-03-04 10:49:52.896,2
22,478,-0.61,1.9,-0.64,0.0,2022-03-04 10:49:52.994,2
23,498,-0.47,1.74,-0.46,0.0,2022-03-04 10:49:53.094,2
24,522,-0.52,1.86,-0.79,0.0,2022-03-04 10:49:53.192,2
25,542,-0.9,1.94,0.76,0.0,2022-03-04 10:49:53.292,2
26,562,-0.87,2.0,-0.85,0.0,2022-03-04 10:49:53.391,2
27,582,-0.94,2.08,0.69,0.0,2022-03-04 10:49:53.490,2
28,604,-0.5,2.02,-0.85,0.0,2022-03-04 10:49:53.590,2
29,626,-0.93,2.06,-0.95,0.0,2022-03-04 10:49:53.699,2
30,644,-0.63,2.11,-1.01,0.0,2022-03-04 10:49:53.788,2
31,666,-0.79,2.15,-1.09,0.0,2022-03-04 10:49:53.899,2
32,686,-0.62,2.2,0.93,0.0,2022-03-04 10:49:53.998,2
33,706,-0.78,2.23,-1.08,0.0,2022-03-04 10:49:54.099,2
34,730,-0.77,2.42,0.88,6.1,2022-03-04 10:49:54.195,2
35,750,-0.64,2.57,-0.97,6.1,2022-03-04 10:49:54.294,2
36,770,-1.05,2.61,-1.34,6.1,2022-03-04 10:49:54.393,2
37,790,-0.95,2.7,-0.91,6.1,2022-03-04 10:49:54.493,2
38,812,-1.19,2.75,-1.33,6.1,2022-03-04 10:49:54.592,2
39,832,-0.91,2.7,-1.45,6.1,2022-03-04 10:49:54.691,2
40,852,-0.67,2.72,1.68,6.1,2022-03-04 10:49:54.792,2
41,872,-0.98,2.24,-1.19,6.1,2022-03-04 10:49:54.890,2
42,892,0.99,0.94,-0.69,6.1,2022-03-04 10:49:54.989,2
43,912,-0.36,1.07,-0.71,6.1,2022-03-04 10:49:55.091,2
44,938,-0.56,2.14,-0.47,10.8,2022-03-04 10:49:55.198,2
45,958,-0.53,2.17,-0.71,10.8,2022-03-04 10:49:55.298,2
46,978,-0.42,1.8,-0.99,10.8,2022-03-04 10:49:55.399,2
47,998,-0.73,1.5,0.84,10.8,2022-03-04 10:49:55.499,2
48,1020,-0.49,1.69,-1.06,10.8,2022-03-04 10:49:55.594,2
49,1040,-0.54,1.56,-0.65,10.8,2022-03-04 10:49:55.694,2
50,1060,-0.53,1.41,-0.8,10.8,2022-03-04 10:49:55.793,2
51,1080,0.4,1.33,-0.81,10.8,2022-03-04 10:49:55.894,2
52,1100,0.14,1.39,-0.5,10.8,2022-03-04 10:49:55.992,2
53,1120,-0.39,1.35,-0.73,10.8,2022-03-04 10:49:56.091,2
54,1144,-0.38,1.32,-0.79,15.5,2022-03-04 10:49:56.190,2
55,1166,-0.8,1.41,-0.7,15.5,2022-03-04 10:49:56.299,2
56,1184,0.68,1.21,0.61,15.5,2022-03-04 10:49:56.389,2
57,1206,0.75,1.11,0.68,15.5,2022-03-04 10:49:56.498,2
58,1228,-0.63,1.18,-0.6,15.5,2022-03-04 10:49:56.598,2
59,1248,-0.6,1.34,-0.94,15.5,2022-03-04 10:49:56.697,2
60,1268,0.56,1.12,-1.09,15.5,2022-03-04 10:49:56.797,2
61,1288,0.7,1.2,-0.83,15.5,2022-03-04 10:49:56.895,2
62,1308,0.42,1.23,0.53,15.5,2022-03-04 10:49:56.994,2
63,1328,0.94,0.94,-0.99,15.5,2022-03-04 10:49:57.094,2
64,1352,0.85,0.97,1.02,19.8,2022-03-04 10:49:57.194,2
65,1372,0.71,0.88,-1.02,19.8,2022-03-04 10:49:57.292,2
66,1392,-0.68,0.85,-1.94,19.8,2022-03-04 10:49:57.391,2
67,1412,1.06,0.41,-1.13,19.8,2022-03-04 10:49:57.490,2
68,1434,0.9,-0.32,1.04,19.8,2022-03-04 10:49:57.590,2
69,1454,0.55,0.46,0.97,19.8,2022-03-04 10:49:57.689,2
70,1476,0.73,-0.62,-0.74,19.8,2022-03-04 10:49:57.799,2
71,1496,0.63,-0.96,-0.46,19.8,2022-03-04 10:49:57.898,2
72,1516,0.59,-0.67,-1.21,19.8,2022-03-04 10:49:57.997,2
73,1536,0.87,-0.83,-1.42,19.8,2022-03-04 10:49:58.097,2
74,1560,0.74,-0.69,0.64,27.7,2022-03-04 10:49:58.196,2
75,1580,0.74,-0.75,0.83,27.7,2022-03-04 10:49:58.294,2
76,1600,0.65,-1.03,-0.97,27.7,2022-03-04 10:49:58.394,2
77,1620,0.58,-0.7,-0.75,27.7,2022-03-04 10:49:58.493,2
78,1642,0.62,-0.84,0.64,27.7,2022-03-04 10:49:58.593,2
79,1662,0.42,-0.7,-0.56,27.7,2022-03-04 10:49:58.692,2
80,1682,0.68,0.48,1.17,27.7,2022-03-04 10:49:58.791,2
81,1702,-0.45,0.56,-0.62,27.7,2022-03-04 10:49:58.893,2
82,1724,-0.31,0.61,0.45,27.7,2022-03-04 10:49:58.999,2
83,1742,-0.55,0.52,-0.71,27.7,2022-03-04 10:49:59.088,2
84,1768,0.58,0.54,-0.67,27.7,2022-03-04 10:49:59.198,2
85,1786,0.62,-0.69,0.62,21.2,2022-03-04 10:49:59.289,2
86,1808,-0.44,0.74,0.66,21.2,2022-03-04 10:49:59.397,2
87,1828,0.3,0.74,-0.82,21.2,2022-03-04 10:49:59.496,2
88,1850,0.74,0.27,-1.11,21.2,2022-03-04 10:49:59.596,2
89,1870,-0.7,0.51,0.46,21.2,2022-03-04 10:49:59.696,2
90,1890,0.92,0.43,0.78,21.2,2022-03-04 10:49:59.793,2
91,1910,-0.59,0.59,-1.19,21.2,2022-03-04 10:49:59.893,2
92,1930,-0.5,0.67,-1.13,21.2,2022-03-04 10:49:59.992,2
93,1950,-0.72,0.47,0.79,21.2,2022-03-04 10:50:00.091,2
94,1974,0.44,0.72,1.41,23.8,2022-03-04 10:50:00.191,2
95,1994,0.9,0.68,-1.45,23.8,2022-03-04 10:50:00.290,2
96,2016,-1.11,0.66,-1.37,23.8,2022-03-04 10:50:00.399,2
97,2036,0.48,0.73,1.47,23.8,2022-03-04 10:50:00.498,2
98,2058,-0.68,0.83,-1.4,23.8,2022-03-04 10:50:00.598,2
99,2078,-0.52,0.56,-1.25,23.8,2022-03-04 10:50:00.697,2
100,2098,-0.82,0.63,-1.33,23.8,2022-03-04 10:50:00.797,2
101,2118,-0.91,0.49,1.06,23.8,2022-03-04 10:50:00.896,2
102,2138,0.5,0.62,1.32,23.8,2022-03-04 10:50:00.995,2
103,2158,-0.7,0.68,1.25,23.8,2022-03-04 10:50:01.096,2
104,2182,-0.88,0.89,-1.13,27.7,2022-03-04 10:50:01.193,2
105,2202,-0.39,-1.07,1.82,27.7,2022-03-04 10:50:01.292,2
106,2222,-0.88,0.54,1.64,27.7,2022-03-04 10:50:01.392,2
107,2242,-1.38,0.81,-1.64,27.7,2022-03-04 10:50:01.491,2
108,2264,-1.23,0.87,-0.77,27.7,2022-03-04 10:50:01.590,2
109,2286,1.1,0.51,-1.81,27.7,2022-03-04 10:50:01.699,2
110,2304,-1.31,0.67,-1.32,27.7,2022-03-04 10:50:01.788,2
111,2326,0.59,0.64,-1.3,27.7,2022-03-04 10:50:01.899,2
112,2346,-0.42,0.44,0.77,27.7,2022-03-04 10:50:01.997,2
113,2366,-0.83,0.76,0.86,27.7,2022-03-04 10:50:02.096,2
114,2390,1.0,0.72,0.96,31.3,2022-03-04 10:50:02.196,2
115,2410,-0.73,0.56,-0.48,31.3,2022-03-04 10:50:02.295,2
116,2430,0.51,-0.67,-0.63,31.3,2022-03-04 10:50:02.395,2
117,2450,0.54,-1.08,-0.83,31.3,2022-03-04 10:50:02.494,2
118,2472,0.61,-1.04,0.64,31.3,2022-03-04 10:50:02.594,2
119,2492,-0.53,-0.95,0.96,31.3,2022-03-04 10:50:02.694,2
120,2512,0.96,-0.74,0.55,31.3,2022-03-04 10:50:02.796,2
121,2532,0.57,-1.01,0.7,31.3,2022-03-04 10:50:02.890,2
122,2554,0.66,-0.9,-0.69,31.3,2022-03-04 10:50:02.999,2
123,2574,0.62,-0.96,-0.65,31.3,2022-03-04 10:50:03.099,2
124,2598,0.59,-0.69,1.23,33.8,2022-03-04 10:50:03.198,2
125,2618,0.36,-0.42,-0.81,33.8,2022-03-04 10:50:03.297,2
126,2638,-0.53,0.78,0.86,33.8,2022-03-04 10:50:03.397,2
127,2658,-0.88,-1.0,-0.58,33.8,2022-03-04 10:50:03.496,2
128,2680,-0.85,0.56,-0.77,33.8,2022-03-04 10:50:03.595,2
129,2700,-0.76,-0.48,-0.68,33.8,2022-03-04 10:50:03.695,2
130,2720,0.68,0.55,-0.61,33.8,2022-03-04 10:50:03.795,2
131,2740,1.01,0.31,-0.77,33.8,2022-03-04 10:50:03.893,2
132,2760,-0.64,-0.25,0.57,33.8,2022-03-04 10:50:03.997,2
133,2780,-1.08,-0.31,-1.14,33.8,2022-03-04 10:50:04.096,2
134,2802,1.21,-0.3,0.56,36.4,2022-03-04 10:50:04.195,2
135,2824,-0.98,0.31,-1.0,36.4,2022-03-04 10:50:04.290,2
136,2846,-1.12,0.39,-1.01,36.4,2022-03-04 10:50:04.399,2
137,2866,-1.17,0.48,-0.97,36.4,2022-03-04 10:50:04.498,2
138,2888,1.09,0.63,1.07,36.4,2022-03-04 10:50:04.598,2
139,2908,1.25,0.42,-0.85,36.4,2022-03-04 10:50:04.697,2
140,2928,-0.7,0.61,-0.98,36.4,2022-03-04 10:50:04.797,2
141,2948,-0.63,0.43,-1.22,36.4,2022-03-04 10:50:04.896,2
142,2968,0.59,0.86,-1.42,36.4,2022-03-04 10:50:04.995,2
143,2988,0.56,0.52,1.28,36.4,2022-03-04 10:50:05.096,2
144,3012,1.35,0.75,-1.94,39.2,2022-03-04 10:50:05.194,2
145,3032,0.73,0.53,1.88,39.2,2022-03-04 10:50:05.294,2
146,3052,0.53,0.87,1.14,39.2,2022-03-04 10:50:05.392,2
147,3072,0.66,0.27,1.4,39.2,2022-03-04 10:50:05.492,2
148,3094,1.19,0.61,-1.73,39.2,2022-03-04 10:50:05.591,2
149,3116,1.26,0.47,-1.41,39.2,2022-03-04 10:50:05.699,2
150,3136,1.01,-0.54,-0.8,39.2,2022-03-04 10:50:05.798,2
151,3156,0.78,-0.34,1.0,39.2,2022-03-04 10:50:05.899,2
152,3176,0.79,-0.41,-1.89,39.2,2022-03-04 10:50:05.997,2
153,3196,1.09,-0.36,-1.22,39.2,2022-03-04 10:50:06.096,2
154,3220,0.52,0.53,-1.65,41.8,2022-03-04 10:50:06.195,2
155,3240,-1.72,-1.08,1.58,41.8,2022-03-04 10:50:06.295,2
156,3260,1.71,-0.86,1.0,41.8,2022-03-04 10:50:06.394,2
157,3280,1.73,-0.95,-1.64,41.8,2022-03-04 10:50:06.494,2
158,3302,0.91,-0.64,1.25,41.8,2022-03-04 10:50:06.593,2
159,3322,-1.66,-0.42,-1.05,41.8,2022-03-04 10:50:06.692,2
160,3342,1.45,-1.08,-1.22,41.8,2022-03-04 10:50:06.794,2
161,3362,-1.87,-0.63,-1.07,41.8,2022-03-04 10:50:06.891,2
162,3382,-1.76,0.92,-1.13,41.8,2022-03-04 10:50:06.991,2
163,3402,1.55,-0.65,0.91,41.8,2022-03-04 10:50:07.092,2
164,3428,-2.55,1.29,2.68,43.6,2022-03-04 10:50:07.198,2
165,3448,1.12,-0.46,-1.68,43.6,2022-03-04 10:50:07.298,2
166,3466,0.51,-0.47,0.95,43.6,2022-03-04 10:50:07.387,10
167,3488,0.65,-0.74,-0.81,43.6,2022-03-04 10:50:07.496,10
168,3510,0.82,-0.46,-0.52,43.6,2022-03-04 10:50:07.596,10
169,3530,0.82,-0.38,-1.02,43.6,2022-03-04 10:50:07.698,10
170,3550,0.8,-0.65,-0.88,43.6,2022-03-04 10:50:07.794,10
171,3570,0.58,-0.81,-0.79,43.6,2022-03-04 10:50:07.894,10
172,3590,0.98,-0.84,-0.75,43.6,2022-03-04 10:50:07.992,10
173,3610,0.61,-1.02,-0.39,43.6,2022-03-04 10:50:08.092,10
174,3634,0.81,-0.88,-0.67,45.0,2022-03-04 10:50:08.191,10
175,3654,0.8,-0.84,-1.01,45.0,2022-03-04 10:50:08.290,10
176,3674,0.62,-1.0,-0.82,45.0,2022-03-04 10:50:08.391,10
177,3696,0.73,-1.16,-1.68,45.0,2022-03-04 10:50:08.499,10
178,3718,0.73,-0.88,0.47,45.0,2022-03-04 10:50:08.598,10
179,3738,-0.45,-0.99,-0.88,45.0,2022-03-04 10:50:08.698,10
180,3758,0.75,-1.0,-0.87,45.0,2022-03-04 10:50:08.796,10
181,3778,0.83,-0.77,-1.04,45.0,2022-03-04 10:50:08.896,10
182,3798,0.94,-0.67,0.9,45.0,2022-03-04 10:50:08.996,10
183,3818,0.78,-0.82,-1.83,45.0,2022-03-04 10:50:09.098,10
184,3842,0.95,-0.59,-0.89,45.4,2022-03-04 10:50:09.194,10
185,3862,0.62,-0.72,-0.5,45.4,2022-03-04 10:50:09.293,10
186,3882,0.64,-0.75,-0.79,45.4,2022-03-04 10:50:09.393,10
187,3902,0.52,-0.68,-0.68,45.4,2022-03-04 10:50:09.492,10
188,3924,0.91,-0.83,-0.5,45.4,2022-03-04 10:50:09.591,10
189,3946,0.58,-0.58,-0.9,45.4,2022-03-04 10:50:09.699,10
190,3964,0.76,-0.63,0.76,45.4,2022-03-04 10:50:09.794,10
191,3986,1.1,-0.75,-1.21,45.4,2022-03-04 10:50:09.898,10
192,4006,0.56,-0.55,-1.09,45.4,2022-03-04 10:50:09.997,10
193,4026,0.66,-0.51,-0.63,45.4,2022-03-04 10:50:10.097,10
194,4050,0.48,-0.52,0.54,45.7,2022-03-04 10:50:10.196,10
195,4070,1.13,-0.55,-0.72,45.7,2022-03-04 10:50:10.295,10
196,4090,0.83,-0.57,0.76,45.7,2022-03-04 10:50:10.395,10
197,4110,0.63,-0.64,0.5,45.7,2022-03-04 10:50:10.494,10
198,4132,0.77,-0.62,-0.99,45.7,2022-03-04 10:50:10.593,10
199,4152,0.74,-0.37,-1.08,45.7,2022-03-04 10:50:10.693,10
200,4172,0.73,-0.48,-0.92,45.7,2022-03-04 10:50:10.792,10
201,4192,0.67,-0.45,1.21,45.7,2022-03-04 10:50:10.891,10
202,4212,0.51,-0.51,0.69,45.7,2022-03-04 10:50:10.990,10
203,4232,0.49,-0.5,-0.74,45.7,2022-03-04 10:50:11.090,10
204,4258,0.96,-0.5,0.91,46.1,2022-03-04 10:50:11.199,10
205,4278,0.93,-0.46,0.7,46.1,2022-03-04 10:50:11.298,10
206,4298,-0.87,-0.42,-0.95,46.1,2022-03-04 10:50:11.397,10
207,4318,0.7,-0.49,-0.88,46.1,2022-03-04 10:50:11.497,5
208,4340,1.06,-0.65,-0.96,46.1,2022-03-04 10:50:11.596,5
209,4360,0.71,-0.91,1.39,46.1,2022-03-04 10:50:11.695,5
210,4380,0.53,-0.8,-1.47,46.1,2022-03-04 10:50:11.794,5
211,4400,0.7,-0.63,-0.62,46.1,2022-03-04 10:50:11.893,5
212,4420,0.99,-0.73,-0.61,46.1,2022-03-04 10:50:11.993,5
213,4440,0.72,-0.59,-0.69,46.1,2022-03-04 10:50:12.093,5
214,4464,0.73,-0.58,-0.75,46.8,2022-03-04 10:50:12.191,5
215,4484,0.64,-0.59,0.67,46.8,2022-03-04 10:50:12.291,5
216,4504,0.57,-0.68,0.41,46.8,2022-03-04 10:50:12.390,5
217,4526,0.52,-0.58,-0.4,46.8,2022-03-04 10:50:12.499,5
218,4548,0.68,-0.62,-0.38,46.8,2022-03-04 10:50:12.598,5
219,4568,0.46,-0.57,0.54,46.8,2022-03-04 10:50:12.698,5
220,4588,0.46,-0.87,-0.35,46.8,2022-03-04 10:50:12.797,5
221,4608,0.65,-0.93,-1.17,46.8,2022-03-04 10:50:12.896,5
222,4628,0.42,-0.96,-0.71,46.8,2022-03-04 10:50:12.995,5
223,4648,0.78,-0.93,-0.64,46.8,2022-03-04 10:50:13.096,5
224,4672,0.77,-1.0,0.52,46.8,2022-03-04 10:50:13.194,5
225,4692,0.75,-0.91,-0.57,46.4,2022-03-04 10:50:13.293,5
226,4712,0.28,-1.42,-0.79,46.4,2022-03-04 10:50:13.392,5
227,4732,0.88,-1.26,0.87,46.4,2022-03-04 10:50:13.491,5
228,4754,0.57,-1.15,0.95,46.4,2022-03-04 10:50:13.591,5
229,4774,0.92,-1.53,-0.94,46.4,2022-03-04 10:50:13.692,5
230,4796,1.09,-1.47,-0.41,46.4,2022-03-04 10:50:13.799,5
231,4816,0.58,-1.46,-0.64,46.4,2022-03-04 10:50:13.899,5
232,4836,1.42,-1.42,-0.9,46.4,2022-03-04 10:50:13.999,5
233,4854,0.74,-1.49,-0.61,46.4,2022-03-04 10:50:14.088,5
234,4880,0.91,-1.48,1.26,46.4,2022-03-04 10:50:14.196,5
235,4900,0.86,-1.54,-1.1,44.3,2022-03-04 10:50:14.296,5
236,4920,0.81,-1.71,-0.8,44.3,2022-03-04 10:50:14.395,5
237,4940,0.88,-1.51,-0.86,44.3,2022-03-04 10:50:14.494,5
238,4962,0.94,-1.58,-0.67,44.3,2022-03-04 10:50:14.594,5
239,4982,0.57,-1.55,0.15,44.3,2022-03-04 10:50:14.693,5
240,5002,0.66,-1.82,-0.35,44.3,2022-03-04 10:50:14.792,5
241,5022,0.97,-1.63,-0.69,44.3,2022-03-04 10:50:14.891,5
242,5042,0.87,-1.88,0.32,44.3,2022-03-04 10:50:14.991,5
243,5062,0.76,-1.96,-0.6,44.3,2022-03-04 10:50:15.091,5
244,5088,1.0,-1.71,-0.87,44.3,2022-03-04 10:50:15.199,5
245,5108,1.07,-1.8,-1.11,40.3,2022-03-04 10:50:15.298,5
246,5128,0.69,-1.72,-0.87,40.3,2022-03-04 10:50:15.398,5
247,5148,1.11,-1.82,-0.54,40.3,2022-03-04 10:50:15.497,5
248,5170,1.48,-1.75,-0.46,40.3,2022-03-04 10:50:15.596,5
249,5190,1.38,-1.72,-0.52,40.3,2022-03-04 10:50:15.695,5
250,5210,1.3,-1.73,-0.65,40.3,2022-03-04 10:50:15.795,5
251,5230,1.06,-1.79,-0.38,40.3,2022-03-04 10:50:15.894,5
252,5250,0.89,-1.77,-0.7,40.3,2022-03-04 10:50:15.993,5
253,5270,1.21,-1.76,-0.42,40.3,2022-03-04 10:50:16.093,5
254,5291,1.38,-1.67,0.87,40.3,2022-03-04 10:50:16.193,5
255,5314,1.17,-1.62,-0.55,34.6,2022-03-04 10:50:16.291,5
256,5334,1.11,-1.67,0.71,34.6,2022-03-04 10:50:16.390,5
257,5354,1.34,-1.62,0.57,34.6,2022-03-04 10:50:16.490,5
258,5378,1.2,-1.5,-0.72,34.6,2022-03-04 10:50:16.599,5
259,5398,1.64,-1.45,-0.44,34.6,2022-03-04 10:50:16.698,5
260,5418,1.59,-1.52,-0.53,34.6,2022-03-04 10:50:16.798,5
261,5438,1.65,-1.44,-0.8,34.6,2022-03-04 10:50:16.896,5
262,5458,1.54,-1.31,-0.4,34.6,2022-03-04 10:50:16.996,5
263,5478,1.79,-1.37,-0.58,34.6,2022-03-04 10:50:17.097,5
264,5502,1.45,-1.33,0.58,34.6,2022-03-04 10:50:17.194,5
265,5522,1.17,-1.32,-0.73,28.8,2022-03-04 10:50:17.294,5
266,5542,1.21,-1.21,-0.64,28.8,2022-03-04 10:50:17.393,8
267,5562,1.28,-0.93,-0.84,28.8,2022-03-04 10:50:17.492,8
268,5584,1.05,-0.81,-0.36,28.8,2022-03-04 10:50:17.591,8
269,5604,0.76,-0.59,-0.73,28.8,2022-03-04 10:50:17.691,8
270,5624,-0.66,-0.67,0.84,28.8,2022-03-04 10:50:17.790,8
271,5644,-0.73,-0.68,0.37,28.8,2022-03-04 10:50:17.889,8
272,5666,-0.98,-0.48,-0.57,28.8,2022-03-04 10:50:17.998,8
273,5684,-1.64,-0.76,-0.74,28.8,2022-03-04 10:50:18.088,8
274,5706,-1.71,-0.77,-0.45,28.8,2022-03-04 10:50:18.197,8
275,5730,-2.26,-0.75,0.29,25.2,2022-03-04 10:50:18.296,8
276,5750,-2.34,-0.98,-0.5,25.2,2022-03-04 10:50:18.395,8
277,5770,-2.46,-0.85,-0.69,25.2,2022-03-04 10:50:18.495,8
278,5792,-3.03,-1.05,-0.51,25.2,2022-03-04 10:50:18.594,8
279,5812,-3.13,-1.07,0.72,25.2,2022-03-04 10:50:18.693,8
280,5832,-3.86,-1.15,0.9,25.2,2022-03-04 10:50:18.792,8
281,5852,-3.59,-1.19,-0.56,25.2,2022-03-04 10:50:18.891,8
282,5872,-3.12,-1.13,-0.54,25.2,2022-03-04 10:50:18.991,8
283,5892,-3.23,-1.1,0.56,25.2,2022-03-04 10:50:19.090,8
284,5914,-3.52,-1.26,0.48,25.2,2022-03-04 10:50:19.198,8
285,5936,-3.23,-1.33,0.56,24.8,2022-03-04 10:50:19.289,8
286,5958,-3.32,-0.89,0.5,24.8,2022-03-04 10:50:19.399,8
287,5978,-3.87,-0.82,-0.65,24.8,2022-03-04 10:50:19.499,8
288,6000,-3.5,-0.49,-0.34,24.8,2022-03-04 10:50:19.599,8
289,6020,-4.01,-0.62,0.65,24.8,2022-03-04 10:50:19.696,8
290,6040,-4.37,-0.89,0.61,24.8,2022-03-04 10:50:19.795,8
291,6060,-4.2,-0.83,1.25,24.8,2022-03-04 10:50:19.895,8
292,6080,-4.3,-1.08,-0.76,24.8,2022-03-04 10:50:19.994,8
293,6100,-4.17,-1.01,-1.23,24.8,2022-03-04 10:50:20.093,8
294,6124,-3.57,-1.07,0.47,24.8,2022-03-04 10:50:20.193,8
295,6144,-3.5,-0.93,0.66,22.3,2022-03-04 10:50:20.291,8
296,6164,-3.37,-0.74,0.55,22.3,2022-03-04 10:50:20.391,8
297,6184,-3.05,-0.86,-0.45,22.3,2022-03-04 10:50:20.490,8
298,6206,-3.09,-0.95,-0.53,22.3,2022-03-04 10:50:20.589,8
299,6228,-3.11,-0.95,0.89,22.3,2022-03-04 10:50:20.698,8
300,6248,-3.27,-1.0,0.45,22.3,2022-03-04 10:50:20.799,8
301,6268,-2.88,-1.05,0.44,22.3,2022-03-04 10:50:20.897,8
302,6288,-3.26,-1.08,-0.48,22.3,2022-03-04 10:50:20.997,8
303,6308,-2.95,-1.23,0.88,22.3,2022-03-04 10:50:21.099,8
304,6332,-3.28,-1.25,0.43,22.3,2022-03-04 10:50:21.195,8
305,6352,-3.4,-1.3,-0.62,20.9,2022-03-04 10:50:21.296,8
306,6372,-2.88,-1.31,-0.87,20.9,2022-03-04 10:50:21.393,8
307,6392,-2.98,-1.23,0.85,20.9,2022-03-04 10:50:21.492,8
308,6414,-2.99,-1.43,-0.76,20.9,2022-03-04 10:50:21.593,8
309,6434,-2.72,-1.6,0.5,20.9,2022-03-04 10:50:21.691,8
310,6454,-2.86,-1.53,0.68,20.9,2022-03-04 10:50:21.790,8
311,6476,-3.01,-1.19,-0.64,20.9,2022-03-04 10:50:21.899,8
312,6496,-3.08,-1.16,1.0,20.9,2022-03-04 10:50:21.999,8
313,6516,-3.46,-1.38,-0.54,20.9,2022-03-04 10:50:22.099,8
314,6540,-3.4,-1.57,-0.95,20.9,2022-03-04 10:50:22.197,8
315,6560,-3.59,-1.57,0.74,18.0,2022-03-04 10:50:22.297,8
316,6580,-3.86,-1.79,1.55,18.0,2022-03-04 10:50:22.397,8
317,6600,-4.59,-1.8,-0.93,18.0,2022-03-04 10:50:22.497,8
318,6622,-3.99,-1.98,-0.7,18.0,2022-03-04 10:50:22.594,8
319,6642,-3.93,-1.98,-0.99,18.0,2022-03-04 10:50:22.694,8
320,6662,-4.46,-2.04,1.03,18.0,2022-03-04 10:50:22.793,8
321,6682,-4.34,-2.28,-0.95,18.0,2022-03-04 10:50:22.892,8
322,6702,-5.1,-2.48,0.85,18.0,2022-03-04 10:50:22.991,8
323,6722,-4.66,-2.37,0.68,18.0,2022-03-04 10:50:23.090,8
324,6748,-4.84,-2.45,-1.58,19.1,2022-03-04 10:50:23.199,8
325,6766,-4.82,-2.39,0.67,19.1,2022-03-04 10:50:23.290,8
326,6788,-5.02,-2.37,1.17,19.1,2022-03-04 10:50:23.398,8
327,6808,-5.98,-2.4,1.97,19.1,2022-03-04 10:50:23.499,8
328,6830,-4.6,-2.19,1.62,19.1,2022-03-04 10:50:23.598,8
329,6850,-6.33,-2.12,-1.2,19.1,2022-03-04 10:50:23.696,8
330,6868,-5.06,-2.44,1.47,19.1,2022-03-04 10:50:23.785,8
331,6890,-4.81,-2.3,0.62,19.1,2022-03-04 10:50:23.896,2
332,6910,-3.87,-1.75,0.78,19.1,2022-03-04 10:50:23.994,2
333,6930,-3.07,-1.85,1.01,19.1,2022-03-04 10:50:24.093,2
334,6950,-3.23,-1.35,1.25,19.1,2022-03-04 10:50:24.193,2
335,6974,-2.75,-1.51,0.72,21.2,2022-03-04 10:50:24.291,2
336,6994,-1.62,-1.1,-1.17,21.2,2022-03-04 10:50:24.391,2
337,7014,-1.88,-0.91,1.05,21.2,2022-03-04 10:50:24.490,2
338,7036,-1.64,-0.96,0.84,21.2,2022-03-04 10:50:24.590,2
339,7058,-1.51,-0.96,0.59,21.2,2022-03-04 10:50:24.699,2
340,7078,-1.78,-0.8,0.94,21.2,2022-03-04 10:50:24.798,2
341,7098,-1.1,-0.63,-0.6,21.2,2022-03-04 10:50:24.898,2
342,7118,-1.42,-0.66,-0.77,21.2,2022-03-04 10:50:24.998,2
343,7138,-0.83,-0.57,-0.45,21.2,2022-03-04 10:50:25.097,2
344,7162,-0.6,-0.57,-0.45,21.2,2022-03-04 10:50:25.196,2
345,7182,-0.89,-0.6,0.42,19.4,2022-03-04 10:50:25.295,2
346,7202,-0.66,-0.88,0.42,19.4,2022-03-04 10:50:25.395,2
347,7222,-0.47,-0.71,-0.63,19.4,2022-03-04 10:50:25.493,2
348,7244,-0.53,-0.44,-0.82,19.4,2022-03-04 10:50:25.591,2
349,7264,0.36,-0.44,0.39,19.4,2022-03-04 10:50:25.692,2
350,7284,0.86,-0.62,0.68,19.4,2022-03-04 10:50:25.792,2
351,7306,0.69,-0.62,1.29,19.4,2022-03-04 10:50:25.899,2
352,7326,1.12,-0.71,-0.98,19.4,2022-03-04 10:50:25.999,2
353,7346,1.07,-0.75,-0.82,19.4,2022-03-04 10:50:26.098,2
354,7370,1.18,-0.46,0.74,22.7,2022-03-04 10:50:26.198,2
355,7390,1.24,-0.7,0.64,22.7,2022-03-04 10:50:26.297,2
356,7410,1.11,-0.37,-0.71,22.7,2022-03-04 10:50:26.396,2
357,7430,1.32,-0.57,0.9,22.7,2022-03-04 10:50:26.495,2
358,7452,1.21,-0.8,0.72,22.7,2022-03-04 10:50:26.594,2
359,7472,1.8,-1.05,-0.8,22.7,2022-03-04 10:50:26.695,2
360,7492,1.63,-0.77,-0.89,22.7,2022-03-04 10:50:26.795,2
361,7512,1.87,-0.58,1.01,22.7,2022-03-04 10:50:26.894,2
362,7532,1.48,-0.79,-0.77,22.7,2022-03-04 10:50:26.991,2
363,7552,1.53,-0.79,-0.94,22.7,2022-03-04 10:50:27.091,2
364,7578,2.26,-0.79,1.58,26.6,2022-03-04 10:50:27.199,2
365,7598,1.48,-0.37,-1.22,26.6,2022-03-04 10:50:27.299,2
366,7618,1.91,-0.62,-0.94,26.6,2022-03-04 10:50:27.398,2
367,7638,1.75,-0.43,-0.84,26.6,2022-03-04 10:50:27.498,2
368,7660,1.45,-0.43,-0.66,26.6,2022-03-04 10:50:27.597,2
369,7680,1.35,-0.72,-0.91,26.6,2022-03-04 10:50:27.698,2
370,7700,1.23,-0.47,-0.86,26.6,2022-03-04 10:50:27.796,2
371,7720,0.97,-0.48,0.8,26.6,2022-03-04 10:50:27.897,2
372,7740,1.29,-0.67,-0.66,26.6,2022-03-04 10:50:27.995,2
373,7760,1.38,-0.56,0.86,26.6,2022-03-04 10:50:28.093,2
374,7784,0.84,-0.37,-1.08,30.2,2022-03-04 10:50:28.193,2
375,7804,1.38,-0.41,1.02,30.2,2022-03-04 10:50:28.294,2
376,7824,1.14,-0.41,0.95,30.2,2022-03-04 10:50:28.394,2
377,7844,0.77,-0.54,-1.08,30.2,2022-03-04 10:50:28.495,2
378,7868,1.07,-0.49,-1.08,30.2,2022-03-04 10:50:28.599,2
379,7888,1.25,-0.27,0.99,30.2,2022-03-04 10:50:28.699,2
380,7908,0.89,-0.29,-1.25,30.2,2022-03-04 10:50:28.798,2
381,7928,1.21,-0.5,-1.35,30.2,2022-03-04 10:50:28.897,2
382,7948,0.78,-0.57,1.44,30.2,2022-03-04 10:50:28.997,2
383,7966,0.97,-1.47,-1.04,30.2,2022-03-04 10:50:29.086,2
384,7992,0.8,-2.22,-1.41,33.5,2022-03-04 10:50:29.195,2
385,8012,-0.79,-1.57,-1.03,33.5,2022-03-04 10:50:29.294,2
386,8032,1.28,-1.84,1.15,33.5,2022-03-04 10:50:29.394,2
387,8052,0.85,-1.67,0.78,33.5,2022-03-04 10:50:29.494,2
388,8074,0.69,-1.69,-0.75,33.5,2022-03-04 10:50:29.592,2
389,8094,0.89,-1.75,-0.74,33.5,2022-03-04 10:50:29.692,2
390,8114,0.85,-1.45,0.39,33.5,2022-03-04 10:50:29.793,2
391,8134,0.8,-1.6,0.62,33.5,2022-03-04 10:50:29.893,2
392,8156,1.08,-1.12,0.75,33.5,2022-03-04 10:50:29.999,2
393,8176,0.91,-0.88,-1.33,33.5,2022-03-04 10:50:30.098,2
394,8200,1.06,-0.75,-1.0,34.2,2022-03-04 10:50:30.199,2
395,8220,1.62,-0.75,-1.1,34.2,2022-03-04 10:50:30.297,2
396,8240,1.19,-0.3,1.11,34.2,2022-03-04 10:50:30.396,2
397,8260,1.71,-1.12,-0.84,34.2,2022-03-04 10:50:30.496,2
398,8282,1.14,-0.76,0.87,34.2,2022-03-04 10:50:30.595,2
399,8302,1.18,-0.64,-0.83,34.2,2022-03-04 10:50:30.694,2
400,8322,0.75,-0.86,-0.84,34.2,2022-03-04 10:50:30.794,2
401,8342,0.81,-0.72,-0.84,34.2,2022-03-04 10:50:30.893,2
402,8362,1.17,-0.83,0.54,34.2,2022-03-04 10:50:30.992,2
403,8382,0.82,-0.84,0.99,34.2,2022-03-04 10:50:31.095,2
404,8402,-1.21,-0.83,-1.3,34.2,2022-03-04 10:50:31.190,2
405,8428,1.53,-0.76,-0.71,37.1,2022-03-04 10:50:31.299,2
406,8448,0.98,-0.7,0.83,37.1,2022-03-04 10:50:31.399,2
407,8468,-0.91,-0.7,0.94,37.1,2022-03-04 10:50:31.498,2
408,8490,-0.84,-0.7,-1.47,37.1,2022-03-04 10:50:31.598,2
409,8508,1.03,-0.86,0.75,37.1,2022-03-04 10:50:31.686,2
410,8530,-0.92,-0.88,-0.58,37.1,2022-03-04 10:50:31.796,2
411,8550,1.31,-0.75,-1.0,37.1,2022-03-04 10:50:31.895,2
412,8570,1.18,-1.0,-0.85,37.1,2022-03-04 10:50:31.995,2
413,8590,0.77,-0.87,1.18,37.1,2022-03-04 10:50:32.096,2
414,8614,0.46,-0.86,-1.16,40.0,2022-03-04 10:50:32.193,2
415,8634,-0.58,-0.98,-0.76,40.0,2022-03-04 10:50:32.292,2
416,8654,1.14,-0.84,-0.8,40.0,2022-03-04 10:50:32.393,2
417,8674,0.75,-0.98,1.44,40.0,2022-03-04 10:50:32.492,2
418,8696,1.14,-1.0,-1.01,40.0,2022-03-04 10:50:32.590,2
419,8716,-0.65,-0.94,-0.58,40.0,2022-03-04 10:50:32.691,2
420,8738,0.75,-0.73,1.16,40.0,2022-03-04 10:50:32.799,2
421,8758,0.53,-0.87,1.09,40.0,2022-03-04 10:50:32.898,2
422,8778,0.65,-0.99,1.06,40.0,2022-03-04 10:50:32.997,2
423,8798,1.01,-1.05,-1.32,40.0,2022-03-04 10:50:33.099,2
424,8822,-0.5,-1.11,-0.88,42.1,2022-03-04 10:50:33.195,2
425,8842,0.83,-1.29,1.32,42.1,2022-03-04 10:50:33.296,2
426,8862,0.5,-1.04,1.32,42.1,2022-03-04 10:50:33.396,2
427,8882,-1.11,-0.86,-1.13,42.1,2022-03-04 10:50:33.493,2
428,8904,-0.86,-0.83,0.55,42.1,2022-03-04 10:50:33.592,2
429,8924,1.1,-1.51,1.39,42.1,2022-03-04 10:50:33.693,2
430,8944,0.63,-1.62,0.73,42.1,2022-03-04 10:50:33.791,2
431,8964,1.04,-1.46,-0.81,42.1,2022-03-04 10:50:33.893,2
432,8984,0.44,-1.6,-1.07,42.1,2022-03-04 10:50:33.990,2
433,9006,0.39,-1.35,-0.67,42.1,2022-03-04 10:50:34.099,2
434,9026,0.67,-1.49,-1.05,42.1,2022-03-04 10:50:34.198,2
435,9050,0.6,-1.66,-0.8,42.5,2022-03-04 10:50:34.298,2
436,9070,0.71,-1.42,0.48,42.5,2022-03-04 10:50:34.397,2
437,9090,0.71,-1.51,0.52,42.5,2022-03-04 10:50:34.499,2
438,9112,0.58,-1.26,0.6,42.5,2022-03-04 10:50:34.595,2
439,9132,0.76,-1.32,-1.14,42.5,2022-03-04 10:50:34.694,2
440,9152,0.37,-1.19,-0.6,42.5,2022-03-04 10:50:34.794,2
441,9172,0.43,-1.09,-0.87,42.5,2022-03-04 10:50:34.894,2
442,9192,0.71,-1.05,-0.61,42.5,2022-03-04 10:50:34.992,2
443,9212,0.95,-0.93,-0.67,42.5,2022-03-04 10:50:35.092,2
444,9236,0.91,-0.89,1.38,42.5,2022-03-04 10:50:35.191,10
445,9256,0.91,-0.81,-0.94,42.5,2022-03-04 10:50:35.291,10
446,9278,0.73,-0.74,0.95,42.5,2022-03-04 10:50:35.399,10
447,9298,0.74,-0.87,-0.89,42.5,2022-03-04 10:50:35.499,10
448,9320,0.76,-0.78,-1.05,42.5,2022-03-04 10:50:35.598,10
449,9340,1.18,-0.76,-1.45,42.5,2022-03-04 10:50:35.697,10
450,9360,-1.04,-0.64,-1.08,42.5,2022-03-04 10:50:35.797,10
451,9380,-0.58,-0.66,1.01,42.5,2022-03-04 10:50:35.896,10
452,9400,-0.39,-0.84,0.85,42.5,2022-03-04 10:50:35.995,10
453,9420,0.57,-0.91,-0.44,42.5,2022-03-04 10:50:36.094,10
454,9444,-0.65,-0.68,-0.64,43.9,2022-03-04 10:50:36.194,10
455,9464,-0.36,-0.68,-0.79,43.9,2022-03-04 10:50:36.292,10
456,9484,-0.67,-0.6,0.7,43.9,2022-03-04 10:50:36.394,10
457,9504,-0.55,-0.43,-0.72,43.9,2022-03-04 10:50:36.497,10
458,9526,0.74,-0.66,-0.67,43.9,2022-03-04 10:50:36.590,10
459,9546,-1.01,-0.45,-0.83,43.9,2022-03-04 10:50:36.691,10
460,9568,-0.67,-0.55,-0.67,43.9,2022-03-04 10:50:36.799,10
461,9588,1.03,-0.8,-0.76,43.9,2022-03-04 10:50:36.898,10
462,9608,0.42,-0.43,0.79,43.9,2022-03-04 10:50:36.997,10
463,9628,-0.47,-0.32,0.92,43.9,2022-03-04 10:50:37.096,10
464,9652,0.51,-0.68,0.61,45.7,2022-03-04 10:50:37.196,10
465,9672,1.1,-0.84,-0.65,45.7,2022-03-04 10:50:37.295,10
466,9692,0.96,-0.62,-1.02,45.7,2022-03-04 10:50:37.394,10
467,9712,0.66,-0.67,1.26,45.7,2022-03-04 10:50:37.494,10
468,9734,0.67,0.38,0.7,45.7,2022-03-04 10:50:37.593,10
469,9754,-1.36,-0.81,-1.0,45.7,2022-03-04 10:50:37.692,10
470,9774,-0.82,-0.55,0.62,45.7,2022-03-04 10:50:37.792,10
471,9794,-1.03,-0.77,1.17,45.7,2022-03-04 10:50:37.891,10
472,9814,-0.96,-0.68,-0.93,45.7,2022-03-04 10:50:37.990,10
473,9834,-0.93,-0.78,-1.0,45.7,2022-03-04 10:50:38.090,10
474,9860,0.78,-0.74,-0.83,47.2,2022-03-04 10:50:38.199,10
475,9880,-0.58,-0.76,0.44,47.2,2022-03-04 10:50:38.298,10
476,9900,0.46,-0.81,-0.4,47.2,2022-03-04 10:50:38.396,10
477,9920,0.55,-0.77,0.83,47.2,2022-03-04 10:50:38.496,10
478,9942,0.9,-0.88,-0.75,47.2,2022-03-04 10:50:38.595,10
479,9962,0.91,-0.7,0.86,47.2,2022-03-04 10:50:38.695,10
480,9982,-0.82,-0.83,-0.78,47.2,2022-03-04 10:50:38.794,10
481,10002,0.76,-0.91,0.85,47.2,2022-03-04 10:50:38.894,10
482,10022,0.24,-1.0,0.69,47.2,2022-03-04 10:50:38.993,10
483,10042,0.84,-0.9,-0.39,47.2,2022-03-04 10:50:39.096,10
484,10066,-0.82,-1.24,-0.58,47.2,2022-03-04 10:50:39.192,10
485,10086,0.88,-0.8,-0.87,47.2,2022-03-04 10:50:39.290,10
486,10106,0.62,-0.93,-0.9,47.2,2022-03-04 10:50:39.393,10
487,10128,0.49,-1.02,-0.77,47.2,2022-03-04 10:50:39.498,10
488,10150,0.61,-1.05,-0.96,47.2,2022-03-04 10:50:39.598,10
489,10170,0.81,-0.81,-0.76,47.2,2022-03-04 10:50:39.697,10
490,10190,0.72,-0.87,-0.64,47.2,2022-03-04 10:50:39.796,10
491,10210,0.69,-1.01,0.72,47.2,2022-03-04 10:50:39.896,10
492,10230,0.95,-0.92,-0.63,47.2,2022-03-04 10:50:39.995,10
493,10250,0.82,-1.16,-0.87,47.2,2022-03-04 10:50:40.098,10
494,10274,-0.47,-0.96,0.71,47.2,2022-03-04 10:50:40.194,5
495,10294,0.64,-1.07,-0.38,46.8,2022-03-04 10:50:40.293,5
496,10314,-0.7,-1.19,0.87,46.8,2022-03-04 10:50:40.393,5
497,10334,0.45,-1.59,-0.83,46.8,2022-03-04 10:50:40.491,5
498,10356,-0.3,-1.58,0.57,46.8,2022-03-04 10:50:40.590,5
499,10376,-0.35,-1.69,-0.76,46.8,2022-03-04 10:50:40.690,5
500,10396,-0.72,-1.8,0.53,46.8,2022-03-04 10:50:40.789,5
501,10418,0.83,-2.22,-0.43,46.8,2022-03-04 10:50:40.899,5
502,10438,0.76,-2.34,0.76,46.8,2022-03-04 10:50:40.998,5
503,10458,0.63,-2.5,0.5,46.8,2022-03-04 10:50:41.098,5
504,10482,0.73,-2.58,-0.53,46.8,2022-03-04 10:50:41.196,5
505,10502,0.78,-2.58,0.84,44.6,2022-03-04 10:50:41.296,5
506,10522,0.64,-2.66,0.65,44.6,2022-03-04 10:50:41.396,5
507,10542,0.92,-2.75,-0.7,44.6,2022-03-04 10:50:41.494,5
508,10564,0.88,-2.98,-0.8,44.6,2022-03-04 10:50:41.593,5
509,10584,0.74,-2.67,0.58,44.6,2022-03-04 10:50:41.694,5
510,10604,0.75,-2.7,-0.74,44.6,2022-03-04 10:50:41.791,5
511,10624,0.58,-2.66,-0.49,44.6,2022-03-04 10:50:41.891,5
512,10644,0.84,-2.69,0.45,44.6,2022-03-04 10:50:41.991,5
513,10664,1.12,-2.71,-1.01,44.6,2022-03-04 10:50:42.090,5
514,10690,0.82,-2.8,-0.75,44.6,2022-03-04 10:50:42.199,5
515,10710,0.99,-2.96,-0.75,38.5,2022-03-04 10:50:42.298,5
516,10730,0.88,-2.91,0.76,38.5,2022-03-04 10:50:42.397,5
517,10750,1.04,-3.21,-0.99,38.5,2022-03-04 10:50:42.497,5
518,10772,0.93,-2.9,-0.55,38.5,2022-03-04 10:50:42.596,5
519,10792,1.32,-2.95,-0.44,38.5,2022-03-04 10:50:42.695,5
520,10812,0.68,-3.03,0.65,38.5,2022-03-04 10:50:42.796,5
521,10832,0.68,-2.99,0.47,38.5,2022-03-04 10:50:42.893,5
522,10852,0.65,-3.04,-1.04,38.5,2022-03-04 10:50:42.993,5
523,10872,0.63,-2.69,-0.78,38.5,2022-03-04 10:50:43.094,5
524,10896,1.01,-2.55,-0.75,38.5,2022-03-04 10:50:43.191,5
525,10916,0.49,-2.13,-0.81,31.0,2022-03-04 10:50:43.290,5
526,10936,0.55,-1.75,-0.78,31.0,2022-03-04 10:50:43.390,5
527,10956,0.49,-1.79,0.67,31.0,2022-03-04 10:50:43.489,5
528,10980,0.47,-1.67,-0.79,31.0,2022-03-04 10:50:43.598,5
529,11000,-0.37,-1.76,-0.8,31.0,2022-03-04 10:50:43.697,5
530,11020,0.68,-1.84,0.88,31.0,2022-03-04 10:50:43.797,5
531,11040,0.94,-1.77,-0.79,31.0,2022-03-04 10:50:43.897,5
532,11060,-0.46,-1.66,-1.13,31.0,2022-03-04 10:50:43.997,5
533,11080,0.45,-1.77,-0.77,31.0,2022-03-04 10:50:44.096,5
534,11104,0.43,-1.71,0.48,31.0,2022-03-04 10:50:44.194,5
535,11124,0.62,-1.6,0.85,25.2,2022-03-04 10:50:44.293,5
536,11144,0.49,-1.65,-0.87,25.2,2022-03-04 10:50:44.392,5
537,11164,0.38,-2.23,-0.91,25.2,2022-03-04 10:50:44.492,5
538,11186,0.6,-2.13,-0.53,25.2,2022-03-04 10:50:44.591,5
539,11206,0.49,-2.18,0.27,25.2,2022-03-04 10:50:44.690,5
540,11226,0.57,-2.15,0.44,25.2,2022-03-04 10:50:44.790,5
541,11248,0.28,-2.07,-0.7,25.2,2022-03-04 10:50:44.899,5
542,11268,0.39,-2.13,-0.44,25.2,2022-03-04 10:50:44.999,5
543,11288,0.31,-1.99,-0.44,25.2,2022-03-04 10:50:45.099,5
544,11308,0.44,-2.03,0.33,25.2,2022-03-04 10:50:45.197,5
545,11332,0.39,-2.03,-0.36,25.2,2022-03-04 10:50:45.296,5
546,11352,0.34,-2.08,-0.48,18.0,2022-03-04 10:50:45.396,5
547,11372,0.32,-2.05,-0.27,18.0,2022-03-04 10:50:45.494,5
548,11394,0.44,-2.04,-0.38,18.0,2022-03-04 10:50:45.593,5
549,11414,0.48,-1.9,-0.46,18.0,2022-03-04 10:50:45.692,5
550,11434,0.28,-1.77,-0.42,18.0,2022-03-04 10:50:45.792,5
551,11454,-0.17,-1.76,-0.42,18.0,2022-03-04 10:50:45.891,5
552,11474,-0.21,-1.4,-0.41,18.0,2022-03-04 10:50:45.990,5
553,11494,0.28,-0.96,0.29,18.0,2022-03-04 10:50:46.092,5
554,11520,0.18,-0.93,-0.36,18.0,2022-03-04 10:50:46.199,5
555,11540,-0.17,-0.91,-0.22,9.7,2022-03-04 10:50:46.299,5
556,11560,-0.22,-0.88,0.32,9.7,2022-03-04 10:50:46.399,5
557,11580,-0.16,-0.78,-0.42,9.7,2022-03-04 10:50:46.497,5
558,11602,-0.14,0.26,0.2,9.7,2022-03-04 10:50:46.596,5
559,11622,-0.2,0.49,-0.26,9.7,2022-03-04 10:50:46.695,5
560,11642,-0.3,0.44,-0.25,9.7,2022-03-04 10:50:46.795,5
561,11662,-0.24,0.43,-0.18,9.7,2022-03-04 10:50:46.894,5
562,11682,-0.25,0.4,-0.15,9.7,2022-03-04 10:50:46.994,5
563,11702,-0.2,0.61,0.14,9.7,2022-03-04 10:50:47.092,5
564,11726,-0.3,1.07,-0.12,9.7,2022-03-04 10:50:47.192,5
565,11746,-0.28,1.42,-0.2,5.4,2022-03-04 10:50:47.291,5
566,11766,-0.38,1.51,0.12,5.4,2022-03-04 10:50:47.390,5
567,11788,-0.31,1.54,-0.28,5.4,2022-03-04 10:50:47.499,5
568,11810,-0.33,1.17,-0.2,5.4,2022-03-04 10:50:47.599,5
569,11830,-0.24,1.1,-0.19,5.4,2022-03-04 10:50:47.699,5
570,11850,-0.28,1.23,-0.34,5.4,2022-03-04 10:50:47.798,5
571,11870,-0.33,1.27,-0.37,5.4,2022-03-04 10:50:47.898,5
572,11890,-0.38,1.16,-0.32,5.4,2022-03-04 10:50:47.998,0
573,11910,-0.27,1.14,-0.22,5.4,2022-03-04 10:50:48.095,0
574,11928,-0.26,1.14,-0.16,5.4,2022-03-04 10:50:48.177,0
