,LineNumber,Accel_X,Accel_Y,Accel_Z,Velocity,RealTime,Label
0,30,-0.23,0.14,-0.29,0.0,2022-03-04 11:18:29.691,0
1,54,-0.25,0.19,-0.23,0.0,2022-03-04 11:18:29.790,0
2,74,-0.25,0.2,-0.23,0.0,2022-03-04 11:18:29.889,0
3,94,-0.25,0.14,-0.2,0.0,2022-03-04 11:18:29.989,0
4,118,-0.25,0.17,-0.3,0.0,2022-03-04 11:18:30.097,0
5,138,-0.24,0.13,-0.25,0.0,2022-03-04 11:18:30.198,0
6,158,-0.25,0.18,-0.19,0.0,2022-03-04 11:18:30.297,0
7,178,0.19,0.12,-0.33,0.0,2022-03-04 11:18:30.396,0
8,198,-0.23,0.17,-0.2,0.0,2022-03-04 11:18:30.494,0
9,218,-0.29,0.2,-0.22,0.0,2022-03-04 11:18:30.594,0
10,238,-0.25,0.12,-0.24,0.0,2022-03-04 11:18:30.694,0
11,262,-0.25,0.13,-0.27,0.0,2022-03-04 11:18:30.792,0
12,282,-0.22,0.13,-0.23,0.0,2022-03-04 11:18:30.891,0
13,302,-0.25,0.14,-0.21,0.0,2022-03-04 11:18:30.991,0
14,324,-0.25,0.17,-0.27,0.0,2022-03-04 11:18:31.090,0
15,344,-0.25,0.13,-0.19,0.0,2022-03-04 11:18:31.189,0
16,364,-0.22,0.11,-0.28,0.0,2022-03-04 11:18:31.290,0
17,386,-0.24,0.14,-0.2,0.0,2022-03-04 11:18:31.399,0
18,406,-0.3,0.18,-0.23,0.0,2022-03-04 11:18:31.499,0
19,424,-0.25,0.09,-0.2,0.0,2022-03-04 11:18:31.587,0
20,444,-0.26,0.15,-0.27,0.0,2022-03-04 11:18:31.686,0
21,470,-0.22,0.11,-0.24,0.0,2022-03-04 11:18:31.795,0
22,490,-0.28,0.15,-0.2,0.0,2022-03-04 11:18:31.894,0
23,510,-0.25,0.18,-0.25,0.0,2022-03-04 11:18:31.995,0
24,532,-0.25,0.12,-0.25,0.0,2022-03-04 11:18:32.093,0
25,552,-0.24,0.14,-0.23,0.0,2022-03-04 11:18:32.192,0
26,572,-0.22,0.1,-0.25,0.0,2022-03-04 11:18:32.291,0
27,592,-0.28,0.13,-0.2,0.0,2022-03-04 11:18:32.391,0
28,612,-0.25,0.17,-0.21,0.0,2022-03-04 11:18:32.490,0
29,632,-0.25,0.09,-0.27,0.0,2022-03-04 11:18:32.590,0
30,652,-0.25,0.09,-0.27,0.0,2022-03-04 11:18:32.689,0
31,678,-0.28,0.12,-0.21,0.0,2022-03-04 11:18:32.798,0
32,698,-0.23,0.14,-0.25,0.0,2022-03-04 11:18:32.898,0
33,718,-0.26,0.12,-0.22,0.0,2022-03-04 11:18:32.998,0
34,740,-0.26,0.08,-0.23,0.0,2022-03-04 11:18:33.097,0
35,760,-0.25,0.08,-0.22,0.0,2022-03-04 11:18:33.198,0
36,780,-0.24,0.14,-0.21,0.0,2022-03-04 11:18:33.295,0
37,800,-0.26,0.14,-0.23,0.0,2022-03-04 11:18:33.393,0
38,820,-0.27,0.1,-0.22,0.0,2022-03-04 11:18:33.492,0
39,840,-0.22,0.1,-0.29,0.0,2022-03-04 11:18:33.591,0
40,860,-0.24,0.09,-0.19,0.0,2022-03-04 11:18:33.691,0
41,884,-0.28,0.14,-0.22,0.0,2022-03-04 11:18:33.790,0
42,904,-0.27,0.11,-0.19,0.0,2022-03-04 11:18:33.889,0
43,924,-0.18,0.14,-0.28,0.0,2022-03-04 11:18:33.990,0
44,948,-0.25,0.11,-0.17,0.0,2022-03-04 11:18:34.098,0
45,968,-0.25,0.13,-0.26,0.0,2022-03-04 11:18:34.198,0
46,988,-0.2,0.1,-0.28,0.0,2022-03-04 11:18:34.297,0
47,1008,-0.27,0.14,-0.18,0.0,2022-03-04 11:18:34.396,0
48,1028,-0.2,0.1,-0.25,0.0,2022-03-04 11:18:34.497,0
49,1048,-0.25,0.08,-0.23,0.0,2022-03-04 11:18:34.596,0
50,1068,-0.24,0.12,-0.27,0.0,2022-03-04 11:18:34.694,0
51,1092,-0.23,-0.1,-0.22,0.0,2022-03-04 11:18:34.792,0
52,1112,-0.24,0.15,-0.19,0.0,2022-03-04 11:18:34.892,0
53,1132,-0.25,0.09,-0.25,0.0,2022-03-04 11:18:34.991,0
54,1154,-0.26,0.08,-0.22,0.0,2022-03-04 11:18:35.092,0
55,1174,-0.19,0.09,-0.3,0.0,2022-03-04 11:18:35.193,0
56,1196,-0.21,0.31,-0.25,0.0,2022-03-04 11:18:35.299,0
57,1216,-0.31,0.12,-0.2,0.0,2022-03-04 11:18:35.398,0
58,1236,-0.25,0.06,-0.18,0.0,2022-03-04 11:18:35.498,0
59,1256,-0.27,0.18,-0.36,0.0,2022-03-04 11:18:35.598,0
60,1276,-0.15,0.11,-0.27,0.0,2022-03-04 11:18:35.697,0
61,1300,-0.28,0.14,-0.22,0.0,2022-03-04 11:18:35.796,0
62,1320,-0.61,0.59,0.77,0.0,2022-03-04 11:18:35.895,0
63,1340,-0.25,0.1,-0.17,0.0,2022-03-04 11:18:35.995,0
64,1362,-0.25,0.07,-0.29,0.0,2022-03-04 11:18:36.097,0
65,1382,-0.23,0.14,-0.25,0.0,2022-03-04 11:18:36.193,0
66,1402,-0.29,0.09,-0.21,0.0,2022-03-04 11:18:36.292,0
67,1422,-0.3,0.11,-0.27,0.0,2022-03-04 11:18:36.392,0
68,1442,-0.26,-0.09,-0.29,0.0,2022-03-04 11:18:36.490,0
69,1462,-0.18,0.08,-0.22,0.0,2022-03-04 11:18:36.589,3
70,1484,-0.31,0.19,-0.42,0.0,2022-03-04 11:18:36.697,3
71,1508,-0.35,0.17,-0.53,0.0,2022-03-04 11:18:36.799,3
72,1528,-0.5,0.6,-0.19,0.0,2022-03-04 11:18:36.897,3
73,1548,-0.45,0.53,-0.4,0.0,2022-03-04 11:18:36.998,3
74,1570,-0.5,0.51,-0.42,0.0,2022-03-04 11:18:37.097,3
75,1590,-0.65,0.41,-0.46,0.0,2022-03-04 11:18:37.196,3
76,1610,-0.43,0.46,-0.41,0.0,2022-03-04 11:18:37.295,3
77,1630,-0.47,0.67,-0.41,0.0,2022-03-04 11:18:37.395,3
78,1650,-0.51,1.17,-0.4,0.0,2022-03-04 11:18:37.494,3
79,1670,-0.61,1.57,-0.19,0.0,2022-03-04 11:18:37.599,3
80,1690,-0.8,1.72,-0.26,0.0,2022-03-04 11:18:37.697,3
81,1714,-0.85,1.83,-0.64,0.0,2022-03-04 11:18:37.790,3
82,1734,-0.96,1.93,-0.55,0.0,2022-03-04 11:18:37.890,3
83,1756,-1.05,2.36,-0.4,0.0,2022-03-04 11:18:37.999,3
84,1778,-1.32,2.5,0.65,0.0,2022-03-04 11:18:38.098,3
85,1798,-1.33,2.72,-0.89,0.0,2022-03-04 11:18:38.198,3
86,1818,-1.22,3.2,-1.03,0.0,2022-03-04 11:18:38.297,3
87,1838,-1.04,3.12,1.49,0.0,2022-03-04 11:18:38.398,3
88,1858,-1.02,2.88,1.63,0.0,2022-03-04 11:18:38.495,3
89,1878,-1.14,3.42,1.63,0.0,2022-03-04 11:18:38.597,3
90,1898,-1.46,3.92,-2.12,0.0,2022-03-04 11:18:38.696,3
91,1922,-1.52,3.58,1.91,8.6,2022-03-04 11:18:38.794,3
92,1942,-1.09,2.15,-1.43,8.6,2022-03-04 11:18:38.894,3
93,1962,-0.98,2.74,0.62,8.6,2022-03-04 11:18:38.994,3
94,1984,-1.04,3.45,-1.48,8.6,2022-03-04 11:18:39.091,3
95,2004,-1.2,3.37,1.48,8.6,2022-03-04 11:18:39.191,3
96,2026,-0.92,2.5,-1.69,8.6,2022-03-04 11:18:39.299,3
97,2046,-1.13,3.49,-1.64,8.6,2022-03-04 11:18:39.399,3
98,2066,-1.25,3.48,-2.05,8.6,2022-03-04 11:18:39.498,3
99,2086,-1.27,2.99,-1.88,8.6,2022-03-04 11:18:39.597,3
100,2106,-0.71,1.18,-0.62,8.6,2022-03-04 11:18:39.697,3
101,2130,-0.89,1.97,-0.64,15.5,2022-03-04 11:18:39.796,3
102,2150,-1.23,2.77,-0.74,15.5,2022-03-04 11:18:39.895,3
103,2170,-1.17,2.34,0.46,15.5,2022-03-04 11:18:39.995,3
104,2192,-0.93,1.36,0.65,15.5,2022-03-04 11:18:40.095,3
105,2212,-1.4,2.17,-0.72,15.5,2022-03-04 11:18:40.194,3
106,2232,-1.59,2.46,1.02,15.5,2022-03-04 11:18:40.293,3
107,2252,-1.57,2.16,1.04,15.5,2022-03-04 11:18:40.393,3
108,2272,-1.04,1.6,1.05,15.5,2022-03-04 11:18:40.493,3
109,2292,-1.13,2.3,-1.66,15.5,2022-03-04 11:18:40.590,3
110,2314,-1.76,2.09,-2.64,15.5,2022-03-04 11:18:40.699,3
111,2338,-1.68,1.78,-1.57,23.4,2022-03-04 11:18:40.798,3
112,2358,-1.07,1.32,1.22,23.4,2022-03-04 11:18:40.897,3
113,2378,-0.93,1.9,1.13,23.4,2022-03-04 11:18:40.997,3
114,2400,-1.29,2.12,-2.31,23.4,2022-03-04 11:18:41.096,3
115,2420,-1.4,1.61,-2.07,23.4,2022-03-04 11:18:41.195,3
116,2440,-0.84,2.25,2.06,23.4,2022-03-04 11:18:41.294,3
117,2460,-0.74,1.98,1.4,23.4,2022-03-04 11:18:41.395,3
118,2480,-1.1,1.88,1.64,23.4,2022-03-04 11:18:41.494,3
119,2500,-1.04,2.15,1.09,23.4,2022-03-04 11:18:41.595,3
120,2520,-1.82,1.94,-1.84,23.4,2022-03-04 11:18:41.696,3
121,2544,1.68,1.27,-1.27,29.5,2022-03-04 11:18:41.791,3
122,2564,0.78,-1.12,0.94,29.5,2022-03-04 11:18:41.892,3
123,2584,-0.56,-1.41,1.09,29.5,2022-03-04 11:18:41.989,3
124,2608,0.86,-0.9,1.24,29.5,2022-03-04 11:18:42.098,3
125,2628,-1.0,-0.98,-1.39,29.5,2022-03-04 11:18:42.198,3
126,2648,-0.89,-0.81,-2.0,29.5,2022-03-04 11:18:42.297,3
127,2668,1.07,-0.66,1.19,29.5,2022-03-04 11:18:42.396,3
128,2688,-0.69,-1.02,0.98,29.5,2022-03-04 11:18:42.495,3
129,2708,0.9,-0.84,-1.31,29.5,2022-03-04 11:18:42.596,3
130,2728,0.92,-0.83,1.27,29.5,2022-03-04 11:18:42.695,3
131,2752,-0.67,-0.9,0.75,31.0,2022-03-04 11:18:42.793,3
132,2772,-0.71,-0.66,-1.29,31.0,2022-03-04 11:18:42.893,3
133,2792,-1.12,0.72,0.9,31.0,2022-03-04 11:18:42.995,3
134,2814,-0.75,0.81,0.66,31.0,2022-03-04 11:18:43.092,3
135,2834,-0.93,1.36,-1.02,31.0,2022-03-04 11:18:43.192,3
136,2856,-0.66,0.49,0.79,31.0,2022-03-04 11:18:43.299,3
137,2876,-0.85,1.27,-0.87,31.0,2022-03-04 11:18:43.399,3
138,2896,-0.46,1.05,-1.39,31.0,2022-03-04 11:18:43.498,3
139,2916,-0.94,0.86,-1.49,31.0,2022-03-04 11:18:43.598,3
140,2934,-0.74,1.04,1.33,31.0,2022-03-04 11:18:43.687,3
141,2960,-0.78,0.77,1.45,33.8,2022-03-04 11:18:43.796,3
142,2980,-0.89,1.32,-1.61,33.8,2022-03-04 11:18:43.897,3
143,3000,-0.94,1.04,0.91,33.8,2022-03-04 11:18:43.994,3
144,3022,-0.64,1.13,1.68,33.8,2022-03-04 11:18:44.094,3
145,3042,-1.26,1.08,-1.3,33.8,2022-03-04 11:18:44.194,3
146,3062,-1.13,0.94,-1.28,33.8,2022-03-04 11:18:44.292,3
147,3082,-0.49,0.59,1.51,33.8,2022-03-04 11:18:44.393,3
148,3102,-0.61,0.6,-0.69,33.8,2022-03-04 11:18:44.492,3
149,3122,-0.85,0.82,-0.96,33.8,2022-03-04 11:18:44.591,3
150,3144,-1.0,0.48,1.03,33.8,2022-03-04 11:18:44.699,3
151,3168,-0.95,1.39,1.22,38.5,2022-03-04 11:18:44.798,3
152,3188,-1.54,1.17,-0.69,38.5,2022-03-04 11:18:44.898,3
153,3208,1.4,1.35,1.04,38.5,2022-03-04 11:18:44.997,3
154,3230,-1.38,0.82,-2.09,38.5,2022-03-04 11:18:45.098,3
155,3250,1.73,0.92,-1.25,38.5,2022-03-04 11:18:45.197,3
156,3270,-1.29,1.41,-1.22,38.5,2022-03-04 11:18:45.295,3
157,3290,-1.26,1.12,-1.98,38.5,2022-03-04 11:18:45.394,3
158,3310,-2.84,1.65,-1.05,38.5,2022-03-04 11:18:45.493,3
159,3330,-2.63,1.61,-2.29,38.5,2022-03-04 11:18:45.593,3
160,3350,-2.07,1.48,1.47,38.5,2022-03-04 11:18:45.692,3
161,3374,-2.36,1.56,-1.85,43.6,2022-03-04 11:18:45.792,3
162,3394,-1.03,-0.31,-0.93,43.6,2022-03-04 11:18:45.891,3
163,3414,-1.01,0.58,0.93,43.6,2022-03-04 11:18:45.991,3
164,3438,-1.13,-0.41,-0.89,43.6,2022-03-04 11:18:46.099,3
165,3458,-1.4,0.41,-0.87,43.6,2022-03-04 11:18:46.198,3
166,3478,-1.64,0.69,0.91,43.6,2022-03-04 11:18:46.297,3
167,3498,-1.74,0.71,1.13,43.6,2022-03-04 11:18:46.397,3
168,3518,-0.9,0.68,1.21,43.6,2022-03-04 11:18:46.496,3
169,3538,-1.86,0.62,-0.89,43.6,2022-03-04 11:18:46.597,3
170,3558,-1.33,-0.41,-2.23,43.6,2022-03-04 11:18:46.695,3
171,3582,-0.76,-1.07,-1.73,47.2,2022-03-04 11:18:46.793,3
172,3602,-1.46,-1.37,-0.99,47.2,2022-03-04 11:18:46.893,3
173,3622,-0.84,-1.3,-0.84,47.2,2022-03-04 11:18:46.992,3
174,3644,-0.74,-1.53,-1.02,47.2,2022-03-04 11:18:47.092,3
175,3664,-0.48,-1.35,-0.8,47.2,2022-03-04 11:18:47.191,3
176,3684,-1.28,-1.16,-0.78,47.2,2022-03-04 11:18:47.290,3
177,3706,-0.83,-1.17,0.59,47.2,2022-03-04 11:18:47.399,3
178,3726,-1.06,-1.14,-0.92,47.2,2022-03-04 11:18:47.499,3
179,3746,-1.23,-1.14,0.7,47.2,2022-03-04 11:18:47.598,3
180,3766,-1.04,-0.75,-0.78,47.2,2022-03-04 11:18:47.697,3
181,3790,-0.61,-0.36,0.72,47.5,2022-03-04 11:18:47.796,3
182,3810,-0.81,0.58,0.92,47.5,2022-03-04 11:18:47.895,3
183,3830,-0.91,-0.58,1.05,47.5,2022-03-04 11:18:47.995,3
184,3852,-0.62,-0.7,-0.97,47.5,2022-03-04 11:18:48.094,3
185,3872,-0.59,-0.39,1.39,47.5,2022-03-04 11:18:48.194,3
186,3892,-0.69,0.33,-1.26,47.5,2022-03-04 11:18:48.293,3
187,3912,0.7,0.36,-1.52,47.5,2022-03-04 11:18:48.392,3
188,3932,0.51,-0.29,-1.29,47.5,2022-03-04 11:18:48.491,3
189,3952,-0.6,0.7,1.61,47.5,2022-03-04 11:18:48.590,3
190,3972,-0.65,0.54,-1.75,47.5,2022-03-04 11:18:48.694,3
191,3998,-1.01,0.75,-1.7,50.0,2022-03-04 11:18:48.799,3
192,4018,0.61,0.81,1.27,50.0,2022-03-04 11:18:48.898,3
193,4038,-0.51,-0.61,1.76,50.0,2022-03-04 11:18:48.997,3
194,4060,1.0,0.74,-1.32,50.0,2022-03-04 11:18:49.097,3
195,4080,-1.36,-0.78,1.27,50.0,2022-03-04 11:18:49.196,3
196,4100,0.75,-0.57,-1.82,50.0,2022-03-04 11:18:49.295,3
197,4120,-0.65,-0.37,0.93,50.0,2022-03-04 11:18:49.394,3
198,4140,0.53,-0.48,1.05,50.0,2022-03-04 11:18:49.494,3
199,4160,-0.39,-0.47,0.81,50.0,2022-03-04 11:18:49.593,3
200,4180,-0.56,0.59,0.95,50.0,2022-03-04 11:18:49.692,3
201,4204,-1.27,-0.71,-1.28,52.9,2022-03-04 11:18:49.791,3
202,4224,1.75,-0.3,-1.99,52.9,2022-03-04 11:18:49.891,3
203,4244,-2.05,-0.56,-1.87,52.9,2022-03-04 11:18:49.990,3
204,4266,-4.32,1.21,-2.33,52.9,2022-03-04 11:18:50.089,3
205,4288,-1.62,-0.56,-1.13,52.9,2022-03-04 11:18:50.198,3
206,4308,-0.83,0.27,0.59,52.9,2022-03-04 11:18:50.298,3
207,4328,-0.96,-0.37,-0.75,52.9,2022-03-04 11:18:50.397,3
208,4348,-0.56,-0.42,-0.91,52.9,2022-03-04 11:18:50.496,3
209,4368,-0.76,-0.65,1.06,52.9,2022-03-04 11:18:50.599,3
210,4388,-0.51,-0.39,-1.01,52.9,2022-03-04 11:18:50.697,3
211,4412,-0.47,-0.48,-1.09,55.4,2022-03-04 11:18:50.794,3
212,4432,-0.91,-0.96,0.94,55.4,2022-03-04 11:18:50.893,3
213,4452,-1.08,-0.88,1.08,55.4,2022-03-04 11:18:50.992,10
214,4474,-0.62,-0.66,-0.75,55.4,2022-03-04 11:18:51.092,10
215,4494,-0.53,-0.87,-0.64,55.4,2022-03-04 11:18:51.191,10
216,4514,-0.7,-0.72,-0.72,55.4,2022-03-04 11:18:51.292,10
217,4536,-0.52,-0.72,0.78,55.4,2022-03-04 11:18:51.399,10
218,4556,0.67,-0.82,0.73,55.4,2022-03-04 11:18:51.499,10
219,4576,0.87,-1.17,0.89,55.4,2022-03-04 11:18:51.598,10
220,4598,-0.52,-1.0,-0.98,56.9,2022-03-04 11:18:51.699,10
221,4620,0.68,-0.85,1.07,56.9,2022-03-04 11:18:51.796,10
222,4640,-0.49,-0.91,0.45,56.9,2022-03-04 11:18:51.897,10
223,4660,-0.76,-0.8,-0.72,56.9,2022-03-04 11:18:51.996,10
224,4682,-0.9,-0.81,0.84,56.9,2022-03-04 11:18:52.094,10
225,4702,-0.44,-0.96,1.01,56.9,2022-03-04 11:18:52.197,10
226,4722,-0.7,-0.96,-0.79,56.9,2022-03-04 11:18:52.293,10
227,4742,-0.52,-1.11,-0.7,56.9,2022-03-04 11:18:52.392,10
228,4762,-0.67,-1.23,-0.63,56.9,2022-03-04 11:18:52.491,10
229,4782,-0.68,-1.13,0.69,56.9,2022-03-04 11:18:52.592,10
230,4802,-0.78,-1.23,-1.0,56.9,2022-03-04 11:18:52.691,10
231,4826,-0.84,-1.21,0.77,57.2,2022-03-04 11:18:52.789,10
232,4846,-1.06,-1.21,-0.83,57.2,2022-03-04 11:18:52.888,10
233,4868,0.49,-1.06,-0.68,57.2,2022-03-04 11:18:52.997,10
234,4890,0.57,-1.45,-1.35,57.2,2022-03-04 11:18:53.097,10
235,4910,-0.7,-1.07,0.66,57.2,2022-03-04 11:18:53.197,10
236,4930,-0.45,-1.53,-0.27,57.2,2022-03-04 11:18:53.295,10
237,4950,0.56,-1.35,-1.16,57.2,2022-03-04 11:18:53.395,10
238,4970,-0.69,-1.08,-0.9,57.2,2022-03-04 11:18:53.494,10
239,4990,-0.35,-1.11,0.56,57.2,2022-03-04 11:18:53.593,10
240,5010,-0.7,-1.15,1.27,57.2,2022-03-04 11:18:53.692,10
241,5034,-0.58,-1.09,0.88,57.2,2022-03-04 11:18:53.792,10
242,5054,-0.64,-1.24,2.06,56.9,2022-03-04 11:18:53.891,10
243,5074,-0.47,-1.06,-2.14,56.9,2022-03-04 11:18:53.990,10
244,5096,-0.44,-0.86,0.83,56.9,2022-03-04 11:18:54.089,10
245,5116,-0.52,-1.04,-0.62,56.9,2022-03-04 11:18:54.188,10
246,5138,0.57,-1.11,-0.8,56.9,2022-03-04 11:18:54.299,10
247,5158,-0.7,-1.1,-0.65,56.9,2022-03-04 11:18:54.397,10
248,5178,-0.78,-1.11,0.62,56.9,2022-03-04 11:18:54.497,10
249,5198,-0.4,-1.34,-1.0,56.9,2022-03-04 11:18:54.596,10
250,5218,0.42,-1.25,0.9,56.9,2022-03-04 11:18:54.695,10
251,5242,-0.7,-1.36,0.56,56.9,2022-03-04 11:18:54.794,10
252,5262,0.61,-1.37,-0.79,56.2,2022-03-04 11:18:54.893,10
253,5282,-0.51,-1.17,-0.79,56.2,2022-03-04 11:18:54.993,10
254,5304,0.51,-1.14,-1.37,56.2,2022-03-04 11:18:55.092,10
255,5324,-0.31,-1.42,0.42,56.2,2022-03-04 11:18:55.191,10
256,5344,-0.81,-1.41,-1.23,56.2,2022-03-04 11:18:55.295,6
257,5364,0.49,-1.22,-0.59,56.2,2022-03-04 11:18:55.390,6
258,5386,-0.71,-1.19,0.66,56.2,2022-03-04 11:18:55.499,6
259,5406,0.49,-1.51,-0.58,56.2,2022-03-04 11:18:55.599,6
260,5424,0.41,-1.35,-0.81,56.2,2022-03-04 11:18:55.687,6
261,5450,0.66,-1.71,-0.66,56.2,2022-03-04 11:18:55.798,6
262,5470,1.09,-1.93,0.59,54.7,2022-03-04 11:18:55.896,6
263,5490,1.07,-2.24,0.71,54.7,2022-03-04 11:18:55.995,6
264,5512,1.26,-2.39,-0.5,54.7,2022-03-04 11:18:56.095,6
265,5532,1.29,-2.23,0.82,54.7,2022-03-04 11:18:56.194,6
266,5552,0.88,-2.24,-1.48,54.7,2022-03-04 11:18:56.294,6
267,5572,1.05,-2.23,-0.63,54.7,2022-03-04 11:18:56.393,6
268,5592,1.13,-2.35,-0.77,54.7,2022-03-04 11:18:56.492,6
269,5612,1.52,-2.18,-0.78,54.7,2022-03-04 11:18:56.591,6
270,5632,1.2,-2.27,-1.1,54.7,2022-03-04 11:18:56.692,6
271,5656,1.09,-2.67,0.75,54.7,2022-03-04 11:18:56.789,6
272,5678,1.65,-2.69,-0.56,49.7,2022-03-04 11:18:56.899,6
273,5696,1.8,-2.72,-1.13,49.7,2022-03-04 11:18:56.988,6
274,5720,1.66,-2.64,-0.9,49.7,2022-03-04 11:18:57.098,6
275,5740,1.99,-2.57,-1.03,49.7,2022-03-04 11:18:57.198,6
276,5760,1.92,-2.49,-0.68,49.7,2022-03-04 11:18:57.298,6
277,5780,1.77,-2.48,0.77,49.7,2022-03-04 11:18:57.395,6
278,5800,1.62,-2.79,-0.81,49.7,2022-03-04 11:18:57.494,6
279,5820,1.85,-2.83,-0.8,49.7,2022-03-04 11:18:57.593,6
280,5840,1.55,-2.51,0.67,49.7,2022-03-04 11:18:57.693,6
281,5864,1.09,-2.65,1.01,49.7,2022-03-04 11:18:57.792,6
282,5884,1.77,-2.77,-0.95,42.5,2022-03-04 11:18:57.891,6
283,5904,1.76,-2.78,0.91,42.5,2022-03-04 11:18:57.990,6
284,5926,1.79,-2.67,-0.73,42.5,2022-03-04 11:18:58.091,6
285,5946,1.66,-2.63,-0.84,42.5,2022-03-04 11:18:58.189,6
286,5968,1.65,-2.62,0.65,42.5,2022-03-04 11:18:58.299,6
287,5988,1.43,-2.57,-0.55,42.5,2022-03-04 11:18:58.398,6
288,6008,1.18,-2.25,-0.51,42.5,2022-03-04 11:18:58.499,6
289,6028,1.04,-2.03,0.37,42.5,2022-03-04 11:18:58.598,6
290,6048,1.38,-2.16,-0.85,42.5,2022-03-04 11:18:58.697,6
291,6072,0.87,-1.79,-0.4,42.5,2022-03-04 11:18:58.797,6
292,6092,0.92,-1.85,-1.01,34.6,2022-03-04 11:18:58.894,6
293,6112,0.94,-2.07,0.6,34.6,2022-03-04 11:18:58.993,6
294,6134,0.92,-1.94,-0.94,34.6,2022-03-04 11:18:59.093,9
295,6154,-0.81,-1.96,-0.78,34.6,2022-03-04 11:18:59.191,9
296,6174,-0.79,-1.98,-0.42,34.6,2022-03-04 11:18:59.291,9
297,6194,-1.68,-1.72,-0.79,34.6,2022-03-04 11:18:59.392,9
298,6216,-1.77,-1.65,0.73,34.6,2022-03-04 11:18:59.499,9
299,6236,-2.09,-1.33,0.36,34.6,2022-03-04 11:18:59.599,9
300,6256,-2.17,-1.37,-0.79,34.6,2022-03-04 11:18:59.699,9
301,6280,-2.44,-1.52,-0.66,34.6,2022-03-04 11:18:59.799,9
302,6300,-2.49,-1.41,-0.49,28.4,2022-03-04 11:18:59.897,9
303,6320,-2.89,-1.36,0.52,28.4,2022-03-04 11:18:59.997,9
304,6342,-3.15,-0.88,0.56,28.4,2022-03-04 11:19:00.096,9
305,6362,-3.61,-0.87,0.7,28.4,2022-03-04 11:19:00.195,9
306,6382,-3.21,-0.86,-0.6,28.4,2022-03-04 11:19:00.294,9
307,6402,-3.61,-0.86,-0.56,28.4,2022-03-04 11:19:00.393,9
308,6422,-3.11,-0.97,-0.37,28.4,2022-03-04 11:19:00.492,9
309,6442,-3.46,-0.69,0.48,28.4,2022-03-04 11:19:00.591,9
310,6462,-3.36,-0.67,0.88,28.4,2022-03-04 11:19:00.693,9
311,6486,-3.77,-0.95,-0.63,28.4,2022-03-04 11:19:00.790,9
312,6508,-4.06,-1.09,-0.61,27.0,2022-03-04 11:19:00.899,9
313,6528,-4.26,-1.28,0.82,27.0,2022-03-04 11:19:00.998,9
314,6550,-4.12,-1.25,0.68,27.0,2022-03-04 11:19:01.097,9
315,6570,-4.43,-1.01,0.64,27.0,2022-03-04 11:19:01.199,9
316,6590,-4.91,-0.57,-0.68,27.0,2022-03-04 11:19:01.298,9
317,6610,-4.01,-1.01,0.5,27.0,2022-03-04 11:19:01.396,9
318,6630,-4.59,-1.26,-0.65,27.0,2022-03-04 11:19:01.495,9
319,6650,-4.57,-1.12,0.58,27.0,2022-03-04 11:19:01.595,9
320,6670,-4.54,-1.35,-0.64,27.0,2022-03-04 11:19:01.693,9
321,6690,-4.94,-1.44,0.44,27.0,2022-03-04 11:19:01.793,9
322,6714,-4.61,-1.5,1.33,27.0,2022-03-04 11:19:01.893,9
323,6734,-4.74,-1.04,0.43,24.1,2022-03-04 11:19:01.990,9
324,6756,-4.69,-1.72,-0.39,24.1,2022-03-04 11:19:02.090,9
325,6778,-4.81,-1.94,0.76,24.1,2022-03-04 11:19:02.199,9
326,6798,-5.0,-2.12,-0.99,24.1,2022-03-04 11:19:02.299,9
327,6818,-4.52,-2.16,-1.31,24.1,2022-03-04 11:19:02.398,9
328,6838,-4.57,-2.38,-1.12,24.1,2022-03-04 11:19:02.497,9
329,6858,-4.25,-2.23,1.08,24.1,2022-03-04 11:19:02.599,9
330,6878,-4.2,-2.32,1.12,24.1,2022-03-04 11:19:02.697,9
331,6902,-3.92,-2.42,-0.85,24.1,2022-03-04 11:19:02.795,9
332,6922,-3.95,-2.35,0.87,21.6,2022-03-04 11:19:02.895,9
333,6942,-4.13,-2.43,-0.81,21.6,2022-03-04 11:19:02.995,9
334,6964,-4.16,-2.62,0.55,21.6,2022-03-04 11:19:03.097,9
335,6984,-3.99,-2.43,0.98,21.6,2022-03-04 11:19:03.194,9
336,7004,-3.96,-2.32,0.78,21.6,2022-03-04 11:19:03.294,9
337,7024,-3.86,-2.38,0.84,21.6,2022-03-04 11:19:03.391,9
338,7044,-4.43,-2.48,0.97,21.6,2022-03-04 11:19:03.490,9
339,7066,-4.19,-2.56,-0.7,21.6,2022-03-04 11:19:03.599,9
340,7086,-5.12,-2.51,1.21,21.6,2022-03-04 11:19:03.698,9
341,7106,-5.42,-2.61,1.09,21.6,2022-03-04 11:19:03.799,9
342,7130,-5.3,-2.89,1.41,21.6,2022-03-04 11:19:03.897,9
343,7150,-4.96,-2.8,0.8,16.2,2022-03-04 11:19:03.997,9
344,7172,-4.93,-2.39,-1.23,16.2,2022-03-04 11:19:04.095,9
345,7192,-4.32,-1.94,-1.56,16.2,2022-03-04 11:19:04.195,9
346,7212,-4.82,-2.15,-0.98,16.2,2022-03-04 11:19:04.298,9
347,7232,-4.63,-2.05,1.27,16.2,2022-03-04 11:19:04.396,9
348,7252,-4.94,-1.82,1.5,16.2,2022-03-04 11:19:04.496,9
349,7272,-4.8,-1.68,1.03,16.2,2022-03-04 11:19:04.594,9
350,7292,-3.44,-1.44,1.46,16.2,2022-03-04 11:19:04.692,9
351,7316,-2.77,-1.2,-1.0,19.8,2022-03-04 11:19:04.792,9
352,7338,-3.02,-0.84,1.86,19.8,2022-03-04 11:19:04.899,9
353,7356,-3.44,-0.46,-1.06,19.8,2022-03-04 11:19:04.989,9
354,7380,-2.39,-0.75,0.71,19.8,2022-03-04 11:19:05.098,3
355,7400,-2.05,0.58,1.09,19.8,2022-03-04 11:19:05.197,3
356,7420,-2.15,0.53,-1.28,19.8,2022-03-04 11:19:05.296,3
357,7440,-1.71,0.57,-0.95,19.8,2022-03-04 11:19:05.396,3
358,7460,-1.7,0.62,0.76,19.8,2022-03-04 11:19:05.495,3
359,7480,-1.14,0.6,0.91,19.8,2022-03-04 11:19:05.595,3
360,7500,-0.97,0.68,0.92,19.8,2022-03-04 11:19:05.695,3
361,7524,-1.04,0.97,1.11,20.5,2022-03-04 11:19:05.793,3
362,7544,-1.27,1.31,1.82,20.5,2022-03-04 11:19:05.892,3
363,7564,-0.76,1.31,1.09,20.5,2022-03-04 11:19:05.992,3
364,7586,-0.61,0.48,-1.56,20.5,2022-03-04 11:19:06.092,3
365,7608,-1.06,0.93,-1.7,20.5,2022-03-04 11:19:06.199,3
366,7626,-0.81,1.47,-1.64,20.5,2022-03-04 11:19:06.289,3
367,7648,-1.34,1.06,2.15,20.5,2022-03-04 11:19:06.398,3
368,7668,0.6,1.17,-1.65,20.5,2022-03-04 11:19:06.497,3
369,7688,-0.65,0.88,-1.54,20.5,2022-03-04 11:19:06.596,3
370,7712,-0.73,1.32,2.73,25.6,2022-03-04 11:19:06.697,3
371,7732,0.61,1.04,1.61,25.6,2022-03-04 11:19:06.795,3
372,7752,-0.89,0.99,-0.61,25.6,2022-03-04 11:19:06.895,3
373,7772,1.1,1.23,1.33,25.6,2022-03-04 11:19:06.994,3
374,7794,-0.75,1.13,1.76,25.6,2022-03-04 11:19:07.093,3
375,7814,-1.12,1.31,-0.91,25.6,2022-03-04 11:19:07.193,3
376,7834,0.97,0.93,-0.81,25.6,2022-03-04 11:19:07.292,3
377,7854,1.46,0.91,1.7,25.6,2022-03-04 11:19:07.393,3
378,7874,1.66,0.8,0.75,25.6,2022-03-04 11:19:07.492,3
379,7896,1.57,0.82,0.93,25.6,2022-03-04 11:19:07.599,3
380,7916,1.73,1.11,-0.93,25.6,2022-03-04 11:19:07.698,3
381,7940,2.26,0.79,-1.31,33.1,2022-03-04 11:19:07.799,3
382,7960,1.92,0.53,-1.45,33.1,2022-03-04 11:19:07.897,3
383,7980,1.63,0.79,0.79,33.1,2022-03-04 11:19:07.996,3
384,8002,2.06,0.8,1.36,33.1,2022-03-04 11:19:08.096,3
385,8022,2.06,0.8,-0.6,33.1,2022-03-04 11:19:08.195,3
386,8042,1.83,-1.65,-0.96,33.1,2022-03-04 11:19:08.294,3
387,8062,2.25,-1.72,-1.11,33.1,2022-03-04 11:19:08.393,3
388,8082,1.16,-1.88,-0.7,33.1,2022-03-04 11:19:08.492,3
389,8102,1.19,-2.19,1.0,33.1,2022-03-04 11:19:08.592,3
390,8122,1.27,-1.63,0.47,33.1,2022-03-04 11:19:08.692,3
391,8146,1.42,-2.2,-0.75,38.5,2022-03-04 11:19:08.793,3
392,8168,1.25,-1.89,-0.69,38.5,2022-03-04 11:19:08.899,3
393,8188,1.6,-1.84,0.71,38.5,2022-03-04 11:19:08.999,3
394,8210,0.98,-0.81,0.98,38.5,2022-03-04 11:19:09.098,3
395,8230,0.95,0.31,0.74,38.5,2022-03-04 11:19:09.197,3
396,8250,1.2,-1.24,-1.16,38.5,2022-03-04 11:19:09.297,3
397,8270,1.21,-0.89,0.88,38.5,2022-03-04 11:19:09.397,3
398,8290,1.24,-1.5,-0.86,38.5,2022-03-04 11:19:09.495,3
399,8310,0.86,-0.85,1.33,38.5,2022-03-04 11:19:09.595,3
400,8330,1.86,-0.92,1.15,38.5,2022-03-04 11:19:09.696,3
401,8354,2.44,-1.1,-1.3,41.0,2022-03-04 11:19:09.793,3
402,8374,0.78,-1.44,-0.73,41.0,2022-03-04 11:19:09.896,3
403,8394,-1.88,-0.88,2.53,41.0,2022-03-04 11:19:09.993,3
404,8416,0.72,-0.73,2.33,41.0,2022-03-04 11:19:10.090,3
405,8436,-1.01,-0.55,1.39,41.0,2022-03-04 11:19:10.191,3
406,8458,0.63,-0.69,-0.99,41.0,2022-03-04 11:19:10.299,3
407,8478,-0.75,-0.47,1.9,41.0,2022-03-04 11:19:10.398,3
408,8498,-1.33,-1.0,2.17,41.0,2022-03-04 11:19:10.499,3
409,8518,-0.86,-0.98,-1.31,41.0,2022-03-04 11:19:10.598,3
410,8538,-1.04,-0.77,1.56,41.0,2022-03-04 11:19:10.699,3
411,8562,-0.75,-1.41,0.89,45.0,2022-03-04 11:19:10.796,3
412,8582,-0.62,-1.07,0.92,45.0,2022-03-04 11:19:10.895,3
413,8602,-0.52,-1.34,0.92,45.0,2022-03-04 11:19:10.994,3
414,8624,-1.05,-1.21,0.53,45.0,2022-03-04 11:19:11.093,3
415,8644,-0.69,-1.2,1.37,45.0,2022-03-04 11:19:11.192,3
416,8664,-0.99,-1.06,0.86,45.0,2022-03-04 11:19:11.293,3
417,8684,-1.22,-0.99,-0.88,45.0,2022-03-04 11:19:11.391,3
418,8704,-0.74,-0.8,1.12,45.0,2022-03-04 11:19:11.490,3
419,8726,0.57,-0.89,-1.31,45.0,2022-03-04 11:19:11.599,3
420,8750,0.65,-1.09,0.97,48.2,2022-03-04 11:19:11.698,3
421,8770,0.7,-1.22,1.26,48.2,2022-03-04 11:19:11.798,10
422,8790,-0.76,-1.03,1.33,48.2,2022-03-04 11:19:11.898,10
423,8810,0.81,-1.24,0.96,48.2,2022-03-04 11:19:11.998,10
424,8832,0.7,-1.07,1.04,48.2,2022-03-04 11:19:12.096,10
425,8852,-0.44,-1.21,1.39,48.2,2022-03-04 11:19:12.195,10
426,8872,0.35,-1.21,-1.11,48.2,2022-03-04 11:19:12.294,10
427,8892,-0.54,-1.17,1.02,48.2,2022-03-04 11:19:12.393,10
428,8912,0.89,-1.16,1.17,48.2,2022-03-04 11:19:12.494,10
429,8932,0.52,-1.07,-0.71,48.2,2022-03-04 11:19:12.593,10
430,8952,-0.65,-1.05,1.39,48.2,2022-03-04 11:19:12.693,10
431,8976,-1.22,-1.27,1.26,50.4,2022-03-04 11:19:12.790,10
432,8998,-0.53,-1.38,-0.87,50.4,2022-03-04 11:19:12.899,10
433,9016,-0.62,-1.01,-1.32,50.4,2022-03-04 11:19:12.990,10
434,9040,-1.2,-1.26,-0.99,50.4,2022-03-04 11:19:13.098,10
435,9060,-0.59,-1.23,0.49,50.4,2022-03-04 11:19:13.197,10
436,9080,0.39,-1.26,0.92,50.4,2022-03-04 11:19:13.297,10
437,9100,-0.58,-1.35,-0.73,50.4,2022-03-04 11:19:13.396,10
438,9120,-0.44,-1.06,-0.95,50.4,2022-03-04 11:19:13.496,10
439,9140,-0.54,-1.14,-0.64,50.4,2022-03-04 11:19:13.598,10
440,9160,-0.64,-0.95,-1.13,50.4,2022-03-04 11:19:13.696,10
441,9184,-0.4,-0.9,-1.13,51.8,2022-03-04 11:19:13.793,10
442,9204,-0.48,-0.99,0.82,51.8,2022-03-04 11:19:13.893,10
443,9224,-0.6,-0.76,-0.65,51.8,2022-03-04 11:19:13.992,10
444,9246,0.57,-0.75,1.49,51.8,2022-03-04 11:19:14.093,10
445,9266,-0.78,-0.7,-1.91,51.8,2022-03-04 11:19:14.190,10
446,9286,-0.46,-1.02,-0.94,51.8,2022-03-04 11:19:14.291,10
447,9306,-0.38,-0.77,-1.22,51.8,2022-03-04 11:19:14.389,10
448,9328,-0.75,-1.05,1.06,51.8,2022-03-04 11:19:14.499,10
449,9348,1.17,-1.1,1.03,51.8,2022-03-04 11:19:14.597,10
450,9368,-0.87,-0.98,1.09,51.8,2022-03-04 11:19:14.698,10
451,9392,-0.91,-1.1,-0.65,54.0,2022-03-04 11:19:14.796,10
452,9412,-0.93,-0.88,-0.74,54.0,2022-03-04 11:19:14.895,10
453,9432,-0.52,-1.0,-1.03,54.0,2022-03-04 11:19:14.995,10
454,9454,-0.49,-1.15,1.15,54.0,2022-03-04 11:19:15.095,10
455,9474,-0.67,-1.11,0.95,54.0,2022-03-04 11:19:15.195,10
456,9494,0.63,-1.14,-0.91,54.0,2022-03-04 11:19:15.292,10
457,9514,0.4,-1.19,-0.72,54.0,2022-03-04 11:19:15.391,10
458,9534,-0.54,-1.36,0.58,54.0,2022-03-04 11:19:15.491,10
459,9554,-0.47,-1.03,-0.85,54.0,2022-03-04 11:19:15.591,10
460,9576,-0.73,-1.09,-0.91,54.0,2022-03-04 11:19:15.699,10
461,9600,0.6,-1.18,-1.03,55.1,2022-03-04 11:19:15.799,10
462,9620,0.28,-1.35,0.62,55.1,2022-03-04 11:19:15.898,10
463,9640,-0.54,-1.11,0.72,55.1,2022-03-04 11:19:15.997,10
464,9662,0.93,-1.25,0.67,55.1,2022-03-04 11:19:16.096,10
465,9682,0.57,-1.21,1.04,55.1,2022-03-04 11:19:16.195,10
466,9702,-0.26,-1.67,-0.93,55.1,2022-03-04 11:19:16.295,10
467,9722,0.54,-1.73,-0.87,55.1,2022-03-04 11:19:16.395,10
468,9742,0.45,-1.14,-0.55,55.1,2022-03-04 11:19:16.493,10
469,9762,0.5,-1.19,-0.68,55.1,2022-03-04 11:19:16.592,10
470,9782,0.63,-1.26,0.92,55.1,2022-03-04 11:19:16.692,10
471,9806,-0.65,-1.4,-0.38,55.4,2022-03-04 11:19:16.791,10
472,9826,0.86,-1.31,-0.68,55.4,2022-03-04 11:19:16.890,10
473,9846,0.46,-1.19,-0.55,55.4,2022-03-04 11:19:16.992,10
474,9870,-0.35,-1.26,-0.45,55.4,2022-03-04 11:19:17.099,10
475,9890,-0.44,-1.29,0.99,55.4,2022-03-04 11:19:17.198,10
476,9910,-0.44,-1.19,-0.86,55.4,2022-03-04 11:19:17.297,10
477,9928,-0.46,-1.43,-0.79,55.4,2022-03-04 11:19:17.387,10
478,9950,-0.84,-1.51,-0.8,55.4,2022-03-04 11:19:17.497,10
479,9970,-0.86,-1.79,-0.71,55.4,2022-03-04 11:19:17.595,10
480,9990,-1.28,-1.3,-0.91,55.4,2022-03-04 11:19:17.694,10
481,10014,-0.9,-1.31,-0.75,55.4,2022-03-04 11:19:17.793,10
482,10034,-0.95,-1.27,0.6,55.1,2022-03-04 11:19:17.893,10
483,10054,-0.61,-1.32,0.65,55.1,2022-03-04 11:19:17.992,10
484,10076,-0.74,-1.08,0.58,55.1,2022-03-04 11:19:18.092,10
485,10096,-0.79,-1.1,-1.15,55.1,2022-03-04 11:19:18.190,10
486,10116,-0.97,-1.41,-1.05,55.1,2022-03-04 11:19:18.290,10
487,10136,-1.05,-1.45,-0.9,55.1,2022-03-04 11:19:18.393,6
488,10158,-0.76,-1.49,-0.55,55.1,2022-03-04 11:19:18.498,6
489,10178,0.67,-1.52,-0.59,55.1,2022-03-04 11:19:18.598,6
490,10196,0.7,-1.8,-0.5,55.1,2022-03-04 11:19:18.688,6
491,10222,-0.58,-1.95,-0.57,55.1,2022-03-04 11:19:18.796,6
492,10242,0.97,-2.47,0.72,54.0,2022-03-04 11:19:18.896,6
493,10262,0.67,-2.6,-0.75,54.0,2022-03-04 11:19:18.995,6
494,10284,0.64,-2.89,0.77,54.0,2022-03-04 11:19:19.094,6
495,10304,1.24,-2.65,0.83,54.0,2022-03-04 11:19:19.193,6
496,10324,0.79,-2.8,0.52,54.0,2022-03-04 11:19:19.293,6
497,10344,0.58,-2.97,-1.1,54.0,2022-03-04 11:19:19.392,6
498,10364,0.55,-2.77,-0.56,54.0,2022-03-04 11:19:19.491,6
499,10384,1.02,-2.79,-0.77,54.0,2022-03-04 11:19:19.590,6
500,10404,0.85,-3.06,-0.79,54.0,2022-03-04 11:19:19.691,6
501,10430,0.86,-3.18,-1.06,54.0,2022-03-04 11:19:19.799,6
502,10450,1.15,-3.31,-0.47,48.6,2022-03-04 11:19:19.898,6
503,10470,1.19,-3.56,-0.74,48.6,2022-03-04 11:19:19.999,6
504,10492,1.15,-3.69,0.54,48.6,2022-03-04 11:19:20.096,6
505,10512,1.0,-3.72,-0.93,48.6,2022-03-04 11:19:20.197,6
506,10532,1.02,-3.69,0.54,48.6,2022-03-04 11:19:20.295,6
507,10552,0.85,-3.82,-0.5,48.6,2022-03-04 11:19:20.394,6
508,10572,1.0,-4.06,-1.3,48.6,2022-03-04 11:19:20.493,6
509,10592,1.3,-4.17,-1.22,48.6,2022-03-04 11:19:20.594,6
510,10612,0.85,-4.15,-1.28,48.6,2022-03-04 11:19:20.692,6
511,10636,0.83,-4.21,0.72,48.6,2022-03-04 11:19:20.791,6
512,10656,0.65,-4.31,-0.6,39.6,2022-03-04 11:19:20.890,6
513,10676,1.43,-4.37,1.52,39.6,2022-03-04 11:19:20.994,6
514,10698,0.69,-4.18,-1.82,39.6,2022-03-04 11:19:21.089,6
515,10720,0.78,-4.29,-1.22,39.6,2022-03-04 11:19:21.199,6
516,10740,0.83,-4.34,1.24,39.6,2022-03-04 11:19:21.299,6
517,10760,0.93,-4.27,0.98,39.6,2022-03-04 11:19:21.397,6
518,10780,1.22,-3.95,-1.14,39.6,2022-03-04 11:19:21.496,6
519,10800,0.89,-3.99,-0.84,39.6,2022-03-04 11:19:21.596,6
520,10820,0.7,-3.99,0.55,39.6,2022-03-04 11:19:21.695,6
521,10844,0.84,-4.02,-0.53,39.6,2022-03-04 11:19:21.794,6
522,10864,0.49,-4.05,-0.61,28.1,2022-03-04 11:19:21.893,6
523,10884,0.71,-3.9,-0.62,28.1,2022-03-04 11:19:21.994,6
524,10906,0.71,-3.94,-0.29,28.1,2022-03-04 11:19:22.094,6
525,10926,0.54,-3.89,-0.35,28.1,2022-03-04 11:19:22.191,6
526,10946,0.6,-3.89,-0.73,28.1,2022-03-04 11:19:22.290,6
527,10968,0.56,-3.77,-0.26,28.1,2022-03-04 11:19:22.399,6
528,10986,0.49,-3.54,-0.42,28.1,2022-03-04 11:19:22.489,6
529,11008,0.57,-3.21,-0.5,28.1,2022-03-04 11:19:22.599,6
530,11026,0.48,-2.84,-0.44,28.1,2022-03-04 11:19:22.698,6
531,11052,0.42,-2.3,-0.18,28.1,2022-03-04 11:19:22.797,6
532,11072,0.15,-1.5,-0.28,15.8,2022-03-04 11:19:22.896,6
533,11092,-0.14,-0.98,-0.2,15.8,2022-03-04 11:19:22.995,6
534,11114,0.11,-0.76,-0.38,15.8,2022-03-04 11:19:23.095,6
535,11134,-0.23,-0.73,-0.39,15.8,2022-03-04 11:19:23.194,6
536,11154,-0.34,-0.65,-0.23,15.8,2022-03-04 11:19:23.293,6
537,11174,-0.21,-0.49,0.2,15.8,2022-03-04 11:19:23.392,6
538,11194,-0.12,-0.5,-0.27,15.8,2022-03-04 11:19:23.492,6
539,11214,-0.22,-0.44,-0.22,15.8,2022-03-04 11:19:23.591,6
540,11236,-0.39,0.63,-0.22,15.8,2022-03-04 11:19:23.695,6
541,11260,-0.44,1.0,-0.28,10.8,2022-03-04 11:19:23.799,6
542,11280,-0.46,1.17,-0.37,10.8,2022-03-04 11:19:23.899,6
543,11300,-0.38,1.34,-0.41,10.8,2022-03-04 11:19:23.998,6
544,11322,-0.49,1.24,-0.3,10.8,2022-03-04 11:19:24.099,6
545,11342,-0.5,1.1,-0.19,10.8,2022-03-04 11:19:24.197,6
546,11362,-0.37,0.95,-0.49,10.8,2022-03-04 11:19:24.297,6
547,11382,-0.69,0.95,0.48,10.8,2022-03-04 11:19:24.395,6
548,11402,-0.45,0.96,-0.25,10.8,2022-03-04 11:19:24.494,6
549,11422,-0.38,1.07,-0.26,10.8,2022-03-04 11:19:24.594,6
550,11442,-0.43,1.12,-0.28,10.8,2022-03-04 11:19:24.695,0
551,11450,-0.34,0.91,-0.12,10.8,2022-03-04 11:19:24.733,0
