,LineNumber,Accel_X,Accel_Y,Accel_Z,Velocity,RealTime,Label
0,10,0.08,0.04,-0.22,0.0,2022-03-04 10:33:13.499,0
1,34,0.46,0.11,-0.36,0.0,2022-03-04 10:33:13.592,0
2,54,0.18,0.1,-0.4,0.0,2022-03-04 10:33:13.698,0
3,74,-0.16,0.08,-0.22,0.0,2022-03-04 10:33:13.791,0
4,94,0.17,0.07,-0.33,0.0,2022-03-04 10:33:13.892,0
5,114,-0.18,0.07,-0.26,0.0,2022-03-04 10:33:13.990,0
6,136,-0.18,0.11,-0.26,0.0,2022-03-04 10:33:14.099,0
7,160,-0.15,0.08,-0.26,0.0,2022-03-04 10:33:14.197,0
8,180,0.15,0.08,-0.3,0.0,2022-03-04 10:33:14.296,0
9,200,0.16,0.08,-0.24,0.0,2022-03-04 10:33:14.396,0
10,220,-0.18,0.12,-0.23,0.0,2022-03-04 10:33:14.495,0
11,242,-0.2,0.1,-0.24,0.0,2022-03-04 10:33:14.594,0
12,262,0.16,-0.13,-0.32,0.0,2022-03-04 10:33:14.694,0
13,282,-0.14,0.1,-0.24,0.0,2022-03-04 10:33:14.794,0
14,302,0.14,0.08,-0.3,0.0,2022-03-04 10:33:14.892,0
15,322,-0.19,-0.09,-0.24,0.0,2022-03-04 10:33:14.994,0
16,342,0.18,-0.12,-0.3,0.0,2022-03-04 10:33:15.091,0
17,366,0.21,0.13,-0.34,0.0,2022-03-04 10:33:15.190,0
18,386,-0.24,0.15,-0.29,0.0,2022-03-04 10:33:15.290,0
19,408,-0.22,-0.16,-0.35,0.0,2022-03-04 10:33:15.399,0
20,428,0.19,0.11,-0.28,0.0,2022-03-04 10:33:15.498,0
21,450,-0.21,-0.26,-0.47,0.0,2022-03-04 10:33:15.597,0
22,470,-0.19,-0.13,0.44,0.0,2022-03-04 10:33:15.697,0
23,490,-0.19,0.12,-0.33,0.0,2022-03-04 10:33:15.797,0
24,510,0.16,0.07,-0.24,0.0,2022-03-04 10:33:15.895,0
25,530,-0.13,-0.09,-0.31,0.0,2022-03-04 10:33:15.994,0
26,550,0.2,0.13,-0.33,0.0,2022-03-04 10:33:16.094,0
27,574,-0.17,0.14,-0.33,0.0,2022-03-04 10:33:16.193,0
28,594,-0.14,-0.09,-0.19,0.0,2022-03-04 10:33:16.294,0
29,614,-0.17,-0.07,-0.32,0.0,2022-03-04 10:33:16.392,2
30,634,0.16,0.08,-0.38,0.0,2022-03-04 10:33:16.491,2
31,658,-0.57,0.62,-0.5,0.0,2022-03-04 10:33:16.599,2
32,676,-0.42,0.95,-0.49,0.0,2022-03-04 10:33:16.692,2
33,698,-0.61,1.0,0.54,0.0,2022-03-04 10:33:16.798,2
34,718,0.61,1.02,-0.66,0.0,2022-03-04 10:33:16.898,2
35,738,-0.65,1.53,-0.51,0.0,2022-03-04 10:33:16.997,2
36,758,-0.59,2.34,-0.47,0.0,2022-03-04 10:33:17.096,2
37,782,-0.61,2.75,0.93,0.0,2022-03-04 10:33:17.195,2
38,802,-1.01,3.12,-1.26,0.0,2022-03-04 10:33:17.295,2
39,822,-0.72,2.97,-1.42,0.0,2022-03-04 10:33:17.394,2
40,842,-0.78,2.94,-1.68,0.0,2022-03-04 10:33:17.493,2
41,864,-0.59,3.33,-1.29,0.0,2022-03-04 10:33:17.593,2
42,884,-0.59,3.14,-1.97,0.0,2022-03-04 10:33:17.694,2
43,904,-1.24,3.29,1.78,0.0,2022-03-04 10:33:17.792,2
44,924,-0.92,3.2,-2.56,0.0,2022-03-04 10:33:17.891,2
45,946,-1.21,2.97,-2.56,0.0,2022-03-04 10:33:17.999,2
46,966,-0.71,2.58,-2.38,0.0,2022-03-04 10:33:18.099,2
47,990,-0.62,2.44,1.4,10.4,2022-03-04 10:33:18.198,2
48,1010,-0.61,3.09,-0.95,10.4,2022-03-04 10:33:18.298,2
49,1030,-0.79,2.71,-1.58,10.4,2022-03-04 10:33:18.396,2
50,1050,-0.62,1.63,0.7,10.4,2022-03-04 10:33:18.495,2
51,1072,-0.43,1.88,1.18,10.4,2022-03-04 10:33:18.595,2
52,1092,-0.6,2.57,0.96,10.4,2022-03-04 10:33:18.694,2
53,1112,-0.57,2.86,-1.09,10.4,2022-03-04 10:33:18.793,2
54,1132,-0.91,1.7,-1.3,10.4,2022-03-04 10:33:18.894,2
55,1152,-0.48,2.26,-0.89,10.4,2022-03-04 10:33:18.992,2
56,1172,-0.62,2.72,-1.15,10.4,2022-03-04 10:33:19.095,2
57,1194,-0.64,2.46,-1.35,16.9,2022-03-04 10:33:19.194,2
58,1216,-0.52,1.89,-0.98,16.9,2022-03-04 10:33:19.290,2
59,1238,-0.58,2.06,0.42,16.9,2022-03-04 10:33:19.399,2
60,1258,-1.14,2.13,-0.67,16.9,2022-03-04 10:33:19.498,2
61,1280,-1.27,1.83,-1.13,16.9,2022-03-04 10:33:19.598,2
62,1300,-1.17,1.47,0.67,16.9,2022-03-04 10:33:19.696,2
63,1320,-1.34,1.93,-0.92,16.9,2022-03-04 10:33:19.796,2
64,1340,1.35,2.04,-1.8,16.9,2022-03-04 10:33:19.895,2
65,1360,0.94,1.74,-2.13,16.9,2022-03-04 10:33:19.994,2
66,1380,-1.28,1.75,1.58,16.9,2022-03-04 10:33:20.094,2
67,1401,-1.46,1.99,-1.78,23.4,2022-03-04 10:33:20.194,2
68,1424,-2.06,1.75,1.36,23.4,2022-03-04 10:33:20.292,2
69,1444,1.07,1.69,1.53,23.4,2022-03-04 10:33:20.392,2
70,1464,-0.92,0.58,-1.38,23.4,2022-03-04 10:33:20.491,2
71,1486,0.99,-0.5,-0.68,23.4,2022-03-04 10:33:20.591,2
72,1508,-0.65,-0.52,0.76,23.4,2022-03-04 10:33:20.699,2
73,1526,0.67,-0.41,1.23,23.4,2022-03-04 10:33:20.789,2
74,1548,0.43,-0.63,0.68,23.4,2022-03-04 10:33:20.898,2
75,1568,-0.5,-0.7,-1.52,23.4,2022-03-04 10:33:20.997,2
76,1588,-0.55,-0.69,-1.34,23.4,2022-03-04 10:33:21.096,2
77,1610,0.58,-0.84,0.8,25.6,2022-03-04 10:33:21.196,2
78,1632,0.88,0.47,1.11,25.6,2022-03-04 10:33:21.295,2
79,1652,0.5,0.93,-0.42,25.6,2022-03-04 10:33:21.396,2
80,1672,-0.88,1.18,0.68,25.6,2022-03-04 10:33:21.493,2
81,1694,-0.52,1.31,-1.14,25.6,2022-03-04 10:33:21.593,2
82,1714,0.42,-0.41,-1.21,25.6,2022-03-04 10:33:21.692,2
83,1734,-0.72,1.3,1.34,25.6,2022-03-04 10:33:21.791,2
84,1754,0.54,1.36,1.47,25.6,2022-03-04 10:33:21.890,2
85,1774,-0.51,0.91,-1.42,25.6,2022-03-04 10:33:21.990,2
86,1794,-0.7,0.99,-0.88,25.6,2022-03-04 10:33:22.089,2
87,1820,-0.56,0.84,1.61,28.8,2022-03-04 10:33:22.199,2
88,1840,-0.41,1.31,1.12,28.8,2022-03-04 10:33:22.297,2
89,1860,0.77,1.25,-1.29,28.8,2022-03-04 10:33:22.397,2
90,1880,-0.48,1.4,1.22,28.8,2022-03-04 10:33:22.496,2
91,1902,-0.5,1.32,-2.1,28.8,2022-03-04 10:33:22.595,2
92,1922,0.54,1.4,-1.7,28.8,2022-03-04 10:33:22.694,2
93,1942,-0.98,1.48,2.0,28.8,2022-03-04 10:33:22.794,2
94,1962,-1.02,1.37,-2.22,28.8,2022-03-04 10:33:22.893,2
95,1982,-0.92,1.34,-2.01,28.8,2022-03-04 10:33:22.992,2
96,2002,-0.99,1.45,-1.73,28.8,2022-03-04 10:33:23.092,2
97,2026,1.0,1.22,1.16,34.2,2022-03-04 10:33:23.191,2
98,2046,-0.7,1.43,-2.17,34.2,2022-03-04 10:33:23.290,2
99,2066,-0.51,1.4,-1.42,34.2,2022-03-04 10:33:23.390,2
100,2088,-1.32,0.97,1.0,34.2,2022-03-04 10:33:23.499,2
101,2108,0.52,0.57,1.06,34.2,2022-03-04 10:33:23.588,2
102,2130,-1.15,0.93,-1.51,34.2,2022-03-04 10:33:23.697,2
103,2150,-0.51,0.86,1.39,34.2,2022-03-04 10:33:23.796,2
104,2170,-0.68,0.91,-0.95,34.2,2022-03-04 10:33:23.897,2
105,2190,-1.14,1.14,-0.98,34.2,2022-03-04 10:33:23.995,2
106,2210,0.84,1.11,1.08,34.2,2022-03-04 10:33:24.098,2
107,2234,-1.16,1.36,1.12,38.5,2022-03-04 10:33:24.193,2
108,2254,0.76,-1.2,-1.55,38.5,2022-03-04 10:33:24.292,2
109,2274,0.56,-1.19,1.06,38.5,2022-03-04 10:33:24.391,2
110,2294,1.51,-1.64,-1.97,38.5,2022-03-04 10:33:24.492,2
111,2316,0.75,-0.94,-0.99,38.5,2022-03-04 10:33:24.590,2
112,2336,-0.5,-1.52,-1.21,38.5,2022-03-04 10:33:24.690,2
113,2356,0.9,-0.97,-2.32,38.5,2022-03-04 10:33:24.789,2
114,2378,-0.52,-1.19,-1.0,38.5,2022-03-04 10:33:24.898,2
115,2396,1.31,1.0,-1.49,38.5,2022-03-04 10:33:24.987,2
116,2416,0.75,1.39,-0.51,38.5,2022-03-04 10:33:25.088,2
117,2442,1.64,1.19,0.65,40.3,2022-03-04 10:33:25.196,2
118,2462,0.7,0.85,0.89,40.3,2022-03-04 10:33:25.296,2
119,2482,-0.74,0.78,-1.34,40.3,2022-03-04 10:33:25.394,2
120,2502,0.8,0.8,-1.45,40.3,2022-03-04 10:33:25.493,2
121,2524,-0.62,0.56,1.26,40.3,2022-03-04 10:33:25.593,2
122,2544,-0.73,0.98,2.23,40.3,2022-03-04 10:33:25.692,2
123,2564,-1.28,0.78,-1.17,40.3,2022-03-04 10:33:25.791,2
124,2584,-0.42,0.64,1.54,40.3,2022-03-04 10:33:25.891,2
125,2604,-0.95,0.87,2.3,40.3,2022-03-04 10:33:25.990,2
126,2624,-1.13,1.23,2.23,40.3,2022-03-04 10:33:26.090,2
127,2650,-0.73,1.18,1.93,43.6,2022-03-04 10:33:26.199,2
128,2670,-0.99,0.93,1.8,43.6,2022-03-04 10:33:26.298,2
129,2690,-0.85,1.05,1.92,43.6,2022-03-04 10:33:26.399,2
130,2710,-0.9,0.67,-0.91,43.6,2022-03-04 10:33:26.497,2
131,2732,-0.77,0.88,1.28,43.6,2022-03-04 10:33:26.597,2
132,2752,-0.72,0.6,1.36,43.6,2022-03-04 10:33:26.695,2
133,2772,-0.84,0.64,-1.14,43.6,2022-03-04 10:33:26.794,2
134,2792,-0.83,-0.3,-0.83,43.6,2022-03-04 10:33:26.893,2
135,2812,-0.29,0.21,1.09,43.6,2022-03-04 10:33:26.994,2
136,2832,-0.66,-0.31,-0.67,43.6,2022-03-04 10:33:27.092,2
137,2856,0.92,-0.49,-1.29,47.2,2022-03-04 10:33:27.192,2
138,2876,0.59,-0.5,1.1,47.2,2022-03-04 10:33:27.290,2
139,2896,0.65,-0.88,0.72,47.2,2022-03-04 10:33:27.389,2
140,2916,0.57,-1.12,-0.71,47.2,2022-03-04 10:33:27.489,10
141,2938,0.48,-1.15,-0.91,47.2,2022-03-04 10:33:27.590,10
142,2960,-0.71,-1.04,1.11,47.2,2022-03-04 10:33:27.698,10
143,2980,0.7,-0.94,-0.9,47.2,2022-03-04 10:33:27.797,10
144,3000,0.74,-1.09,-0.97,47.2,2022-03-04 10:33:27.898,10
145,3020,0.57,-1.08,1.0,47.2,2022-03-04 10:33:27.997,10
146,3040,0.79,-0.93,0.87,47.2,2022-03-04 10:33:28.097,10
147,3060,-0.65,-0.98,-0.71,47.2,2022-03-04 10:33:28.194,10
148,3084,-0.48,-0.95,-0.81,47.5,2022-03-04 10:33:28.293,10
149,3104,0.83,-0.98,0.79,47.5,2022-03-04 10:33:28.392,10
150,3124,0.92,-0.7,0.97,47.5,2022-03-04 10:33:28.491,10
151,3146,0.86,-1.15,2.15,47.5,2022-03-04 10:33:28.592,10
152,3166,-0.86,-0.68,-1.55,47.5,2022-03-04 10:33:28.690,10
153,3186,0.86,-1.03,-1.21,47.5,2022-03-04 10:33:28.789,10
154,3206,0.46,-0.66,-1.26,47.5,2022-03-04 10:33:28.888,10
155,3226,0.62,-0.6,-1.38,47.5,2022-03-04 10:33:28.988,10
156,3246,0.39,-0.88,1.64,47.5,2022-03-04 10:33:29.092,10
157,3272,0.56,-0.77,-0.98,48.2,2022-03-04 10:33:29.196,10
158,3292,0.57,-0.77,-0.95,48.2,2022-03-04 10:33:29.295,10
159,3312,0.73,-0.81,-2.11,48.2,2022-03-04 10:33:29.396,10
160,3332,1.48,-0.98,-1.84,48.2,2022-03-04 10:33:29.496,10
161,3354,1.2,-0.9,1.26,48.2,2022-03-04 10:33:29.593,10
162,3374,2.87,-1.49,2.11,48.2,2022-03-04 10:33:29.692,10
163,3394,1.01,-0.8,0.93,48.2,2022-03-04 10:33:29.792,10
164,3414,1.0,-0.89,-0.9,48.2,2022-03-04 10:33:29.891,10
165,3434,0.92,-0.86,-0.62,48.2,2022-03-04 10:33:29.990,10
166,3454,0.65,-0.82,-0.95,48.2,2022-03-04 10:33:30.091,10
167,3478,0.51,-0.61,-0.82,48.6,2022-03-04 10:33:30.189,10
168,3500,1.35,-0.6,-1.14,48.6,2022-03-04 10:33:30.298,10
169,3520,0.59,-0.7,-0.81,48.6,2022-03-04 10:33:30.398,10
170,3540,0.67,-0.73,-0.68,48.6,2022-03-04 10:33:30.499,10
171,3562,0.8,-0.81,-0.87,48.6,2022-03-04 10:33:30.599,10
172,3582,-0.73,-0.92,-1.17,48.6,2022-03-04 10:33:30.696,10
173,3602,0.73,-0.75,-0.72,48.6,2022-03-04 10:33:30.795,10
174,3622,0.4,-0.76,-0.71,48.6,2022-03-04 10:33:30.895,10
175,3642,-0.67,-0.65,-0.9,48.6,2022-03-04 10:33:30.996,10
176,3662,0.63,-0.92,-0.56,48.6,2022-03-04 10:33:31.092,10
177,3682,0.35,-0.61,-0.51,48.6,2022-03-04 10:33:31.191,10
178,3706,0.7,-0.67,-0.52,49.0,2022-03-04 10:33:31.290,10
179,3726,0.99,-0.66,0.58,49.0,2022-03-04 10:33:31.390,10
180,3748,0.85,-0.87,-1.49,49.0,2022-03-04 10:33:31.499,10
181,3770,0.82,-0.59,-1.16,49.0,2022-03-04 10:33:31.599,10
182,3790,0.74,-0.59,-0.76,49.0,2022-03-04 10:33:31.698,10
183,3810,-0.84,-0.5,-0.99,49.0,2022-03-04 10:33:31.799,10
184,3830,0.72,-0.44,-0.55,49.0,2022-03-04 10:33:31.899,10
185,3850,0.61,-0.59,1.03,49.0,2022-03-04 10:33:31.999,10
186,3870,-0.57,-0.55,1.17,49.0,2022-03-04 10:33:32.097,10
187,3894,0.53,-0.55,-0.39,49.7,2022-03-04 10:33:32.194,10
188,3914,-0.74,-0.46,-0.96,49.7,2022-03-04 10:33:32.294,10
189,3934,-0.52,-0.5,-1.14,49.7,2022-03-04 10:33:32.394,10
190,3954,0.5,-0.62,1.14,49.7,2022-03-04 10:33:32.495,10
191,3976,-0.49,-0.6,1.06,49.7,2022-03-04 10:33:32.592,10
192,3996,-0.41,-0.58,-0.81,49.7,2022-03-04 10:33:32.690,10
193,4018,0.59,-0.58,0.59,49.7,2022-03-04 10:33:32.799,10
194,4038,0.88,-0.63,-1.12,49.7,2022-03-04 10:33:32.899,10
195,4058,-0.72,-0.53,-1.38,49.7,2022-03-04 10:33:32.998,10
196,4078,0.23,-0.51,-0.98,49.7,2022-03-04 10:33:33.097,10
197,4102,-0.38,-0.55,0.58,50.4,2022-03-04 10:33:33.197,10
198,4122,-0.66,-0.42,-0.66,50.4,2022-03-04 10:33:33.297,10
199,4142,0.75,-0.49,-0.62,50.4,2022-03-04 10:33:33.395,10
200,4162,-0.68,-0.42,-0.98,50.4,2022-03-04 10:33:33.495,10
201,4184,0.68,-0.46,-0.66,50.4,2022-03-04 10:33:33.594,10
202,4204,-0.76,-0.47,-1.01,50.4,2022-03-04 10:33:33.695,10
203,4224,-0.57,-1.03,-1.44,50.4,2022-03-04 10:33:33.793,10
204,4244,-0.76,-0.52,-0.64,50.4,2022-03-04 10:33:33.892,10
205,4264,0.99,-0.74,1.34,50.4,2022-03-04 10:33:33.992,10
206,4284,0.99,-0.56,-1.07,50.4,2022-03-04 10:33:34.090,10
207,4310,0.71,-0.7,-0.85,51.1,2022-03-04 10:33:34.199,10
208,4330,1.01,-0.79,-0.71,51.1,2022-03-04 10:33:34.298,10
209,4350,0.65,-1.27,-0.93,51.1,2022-03-04 10:33:34.398,10
210,4370,0.77,-0.76,-0.58,51.1,2022-03-04 10:33:34.497,10
211,4392,0.33,-0.56,-0.75,51.1,2022-03-04 10:33:34.596,5
212,4412,-0.51,-0.71,-0.71,51.1,2022-03-04 10:33:34.697,5
213,4432,-0.36,-0.65,-0.82,51.1,2022-03-04 10:33:34.796,5
214,4452,0.62,-0.84,-0.73,51.1,2022-03-04 10:33:34.895,5
215,4472,-0.48,-0.87,0.85,51.1,2022-03-04 10:33:34.994,5
216,4492,0.73,-0.99,-0.8,51.1,2022-03-04 10:33:35.096,5
217,4512,0.91,-1.0,-1.15,51.1,2022-03-04 10:33:35.196,5
218,4536,0.92,-1.2,-1.05,51.1,2022-03-04 10:33:35.291,5
219,4556,0.56,-1.24,0.25,50.8,2022-03-04 10:33:35.393,5
220,4578,1.08,-1.32,-0.87,50.8,2022-03-04 10:33:35.499,5
221,4600,0.66,-1.38,-0.73,50.8,2022-03-04 10:33:35.599,5
222,4620,1.36,-1.46,0.73,50.8,2022-03-04 10:33:35.698,5
223,4640,0.63,-1.3,0.66,50.8,2022-03-04 10:33:35.797,5
224,4660,0.78,-1.69,-0.95,50.8,2022-03-04 10:33:35.896,5
225,4680,1.0,-1.75,-0.56,50.8,2022-03-04 10:33:35.996,5
226,4700,1.22,-1.41,-0.73,50.8,2022-03-04 10:33:36.096,5
227,4724,1.06,-1.33,-1.11,50.8,2022-03-04 10:33:36.195,5
228,4744,0.78,-1.43,0.66,48.2,2022-03-04 10:33:36.293,5
229,4764,0.94,-1.68,0.48,48.2,2022-03-04 10:33:36.394,5
230,4784,0.8,-2.0,-0.88,48.2,2022-03-04 10:33:36.493,5
231,4806,0.83,-2.02,-0.73,48.2,2022-03-04 10:33:36.592,5
232,4826,0.74,-2.0,-0.72,48.2,2022-03-04 10:33:36.691,5
233,4846,1.05,-1.85,-1.08,48.2,2022-03-04 10:33:36.792,5
234,4868,0.79,-1.96,-0.6,48.2,2022-03-04 10:33:36.899,5
235,4886,1.11,-1.94,-0.93,48.2,2022-03-04 10:33:36.988,5
236,4908,1.28,-2.08,-0.86,48.2,2022-03-04 10:33:37.099,5
237,4932,1.32,-1.87,-1.13,48.2,2022-03-04 10:33:37.197,5
238,4952,1.41,-2.12,0.5,43.9,2022-03-04 10:33:37.296,5
239,4972,1.53,-2.23,-1.17,43.9,2022-03-04 10:33:37.397,5
240,4992,1.31,-2.12,-1.02,43.9,2022-03-04 10:33:37.495,5
241,5014,1.59,-2.03,-0.87,43.9,2022-03-04 10:33:37.595,5
242,5034,1.46,-1.95,-0.76,43.9,2022-03-04 10:33:37.698,5
243,5054,1.69,-1.93,-0.87,43.9,2022-03-04 10:33:37.793,5
244,5074,1.35,-1.48,-0.52,43.9,2022-03-04 10:33:37.893,5
245,5094,1.2,-1.21,-0.53,43.9,2022-03-04 10:33:37.991,5
246,5114,1.49,-0.9,-0.65,43.9,2022-03-04 10:33:38.091,5
247,5136,1.36,-1.09,0.55,43.9,2022-03-04 10:33:38.199,5
248,5160,1.16,-1.23,0.61,38.5,2022-03-04 10:33:38.299,5
249,5180,1.31,-1.6,-0.55,38.5,2022-03-04 10:33:38.398,5
250,5200,1.55,-1.67,0.61,38.5,2022-03-04 10:33:38.497,5
251,5222,1.61,-1.75,0.69,38.5,2022-03-04 10:33:38.596,5
252,5242,1.6,-1.82,-0.78,38.5,2022-03-04 10:33:38.695,5
253,5262,1.61,-1.56,-0.46,38.5,2022-03-04 10:33:38.795,5
254,5282,1.3,-1.55,0.44,38.5,2022-03-04 10:33:38.895,5
255,5302,1.46,-1.7,0.45,38.5,2022-03-04 10:33:38.994,5
256,5322,1.13,-1.52,0.84,38.5,2022-03-04 10:33:39.094,5
257,5346,1.28,-1.77,-0.94,38.5,2022-03-04 10:33:39.192,5
258,5366,0.82,-1.51,0.47,33.5,2022-03-04 10:33:39.292,5
259,5386,0.61,-1.59,-0.44,33.5,2022-03-04 10:33:39.391,5
260,5406,-0.52,-1.63,-0.84,33.5,2022-03-04 10:33:39.491,5
261,5430,-0.89,-1.65,-0.89,33.5,2022-03-04 10:33:39.599,8
262,5450,-1.03,-1.52,-0.99,33.5,2022-03-04 10:33:39.698,8
263,5470,-0.97,-1.53,0.62,33.5,2022-03-04 10:33:39.797,8
264,5490,-1.22,-1.39,-0.62,33.5,2022-03-04 10:33:39.897,8
265,5510,-1.55,-1.06,-0.85,33.5,2022-03-04 10:33:39.996,8
266,5528,-1.74,-0.91,-0.74,33.5,2022-03-04 10:33:40.086,8
267,5554,-2.55,-0.82,0.39,33.5,2022-03-04 10:33:40.195,8
268,5574,-2.58,-0.68,-0.63,27.7,2022-03-04 10:33:40.293,8
269,5594,-2.86,-0.66,-0.6,27.7,2022-03-04 10:33:40.393,8
270,5614,-2.89,-0.62,-0.6,27.7,2022-03-04 10:33:40.492,8
271,5636,-2.98,-0.59,0.52,27.7,2022-03-04 10:33:40.592,8
272,5656,-3.3,-0.8,0.62,27.7,2022-03-04 10:33:40.693,8
273,5676,-2.99,-0.87,0.67,27.7,2022-03-04 10:33:40.790,8
274,5698,-3.48,-1.04,-0.6,27.7,2022-03-04 10:33:40.899,8
275,5718,-3.67,-1.02,-0.58,27.7,2022-03-04 10:33:40.999,8
276,5738,-4.14,-1.28,0.78,27.7,2022-03-04 10:33:41.098,8
277,5762,-4.61,-1.29,0.43,29.2,2022-03-04 10:33:41.197,8
278,5782,-4.25,-1.48,0.59,29.2,2022-03-04 10:33:41.297,8
279,5802,-4.5,-1.43,-0.49,29.2,2022-03-04 10:33:41.396,8
280,5822,-4.43,-1.37,0.71,29.2,2022-03-04 10:33:41.494,8
281,5844,-4.13,-1.29,0.47,29.2,2022-03-04 10:33:41.594,8
282,5864,-4.08,-1.4,-0.49,29.2,2022-03-04 10:33:41.693,8
283,5884,-3.57,-1.28,-0.65,29.2,2022-03-04 10:33:41.792,8
284,5904,-3.61,-0.98,0.4,29.2,2022-03-04 10:33:41.892,8
285,5924,-3.69,-1.42,0.59,29.2,2022-03-04 10:33:41.991,8
286,5944,-3.76,-1.01,0.62,29.2,2022-03-04 10:33:42.092,8
287,5968,-3.61,-1.19,-0.5,29.2,2022-03-04 10:33:42.190,8
288,5990,-3.46,-1.14,0.7,25.9,2022-03-04 10:33:42.299,8
289,6010,-3.71,-1.55,-0.67,25.9,2022-03-04 10:33:42.398,8
290,6030,-3.82,-1.28,0.46,25.9,2022-03-04 10:33:42.497,8
291,6052,-3.98,-1.24,0.66,25.9,2022-03-04 10:33:42.598,8
292,6072,-4.0,-1.3,0.65,25.9,2022-03-04 10:33:42.696,8
293,6092,-4.35,-1.49,0.52,25.9,2022-03-04 10:33:42.795,8
294,6112,-3.78,-1.52,0.72,25.9,2022-03-04 10:33:42.894,8
295,6132,-4.05,-1.53,-0.65,25.9,2022-03-04 10:33:42.994,8
296,6152,-3.73,-1.95,-0.62,25.9,2022-03-04 10:33:43.093,8
297,6176,-3.25,-1.91,0.97,25.9,2022-03-04 10:33:43.193,8
298,6196,-3.51,-1.99,0.76,22.3,2022-03-04 10:33:43.291,8
299,6216,-3.63,-2.01,-0.53,22.3,2022-03-04 10:33:43.392,8
300,6236,-3.46,-2.06,0.61,22.3,2022-03-04 10:33:43.491,8
301,6260,-3.71,-2.0,0.91,22.3,2022-03-04 10:33:43.599,8
302,6280,-3.51,-2.04,-0.76,22.3,2022-03-04 10:33:43.699,8
303,6300,-3.63,-2.05,0.47,22.3,2022-03-04 10:33:43.798,8
304,6320,-4.07,-1.94,0.53,22.3,2022-03-04 10:33:43.897,8
305,6340,-4.13,-2.4,-0.83,22.3,2022-03-04 10:33:43.996,8
306,6360,-3.83,-2.22,0.82,22.3,2022-03-04 10:33:44.097,8
307,6384,-4.06,-2.49,1.22,22.3,2022-03-04 10:33:44.195,8
308,6404,-4.24,-2.02,-0.86,17.3,2022-03-04 10:33:44.294,8
309,6424,-3.99,-2.35,0.65,17.3,2022-03-04 10:33:44.393,8
310,6444,-4.02,-2.02,1.01,17.3,2022-03-04 10:33:44.496,8
311,6466,-5.22,-2.16,-0.56,17.3,2022-03-04 10:33:44.592,8
312,6486,-3.77,-2.26,-0.9,17.3,2022-03-04 10:33:44.691,8
313,6506,-4.59,-1.9,1.87,17.3,2022-03-04 10:33:44.790,8
314,6526,-5.0,-2.36,-1.16,17.3,2022-03-04 10:33:44.890,8
315,6548,-4.8,-2.39,-1.28,17.3,2022-03-04 10:33:44.999,8
316,6566,-4.95,-1.89,1.06,17.3,2022-03-04 10:33:45.088,8
317,6592,-4.81,-2.18,1.37,19.4,2022-03-04 10:33:45.197,8
318,6612,-5.09,-2.02,1.01,19.4,2022-03-04 10:33:45.297,8
319,6632,-4.2,-1.78,1.69,19.4,2022-03-04 10:33:45.396,8
320,6652,-3.41,-1.37,0.77,19.4,2022-03-04 10:33:45.496,8
321,6674,-2.87,-1.2,1.04,19.4,2022-03-04 10:33:45.594,8
322,6694,-2.27,-1.27,-0.85,19.4,2022-03-04 10:33:45.695,8
323,6714,-2.18,-1.07,-1.1,19.4,2022-03-04 10:33:45.793,8
324,6734,-2.24,-1.12,-0.88,19.4,2022-03-04 10:33:45.893,8
325,6754,-1.73,-0.94,0.92,19.4,2022-03-04 10:33:45.991,8
326,6774,-1.61,-0.85,-0.52,19.4,2022-03-04 10:33:46.091,8
327,6794,-1.77,-0.89,-0.83,19.4,2022-03-04 10:33:46.191,8
328,6818,-1.06,-0.86,-1.04,19.4,2022-03-04 10:33:46.290,8
329,6840,-0.96,-0.7,-1.18,19.1,2022-03-04 10:33:46.398,8
330,6860,-0.85,-0.76,1.24,19.1,2022-03-04 10:33:46.497,8
331,6882,0.62,-0.68,-0.79,19.1,2022-03-04 10:33:46.597,8
332,6902,0.63,-0.73,-0.45,19.1,2022-03-04 10:33:46.696,8
333,6922,-0.56,-0.75,0.56,19.1,2022-03-04 10:33:46.796,8
334,6942,-1.02,-0.63,-0.7,19.1,2022-03-04 10:33:46.898,8
335,6962,-0.89,-0.68,-0.57,19.1,2022-03-04 10:33:46.994,8
336,6982,-0.69,-0.5,-0.75,19.1,2022-03-04 10:33:47.094,8
337,7006,0.94,-0.76,0.76,20.2,2022-03-04 10:33:47.193,8
338,7026,1.42,-0.33,1.05,20.2,2022-03-04 10:33:47.292,8
339,7046,1.23,-0.48,1.18,20.2,2022-03-04 10:33:47.391,2
340,7066,1.06,-0.5,-0.98,20.2,2022-03-04 10:33:47.490,2
341,7088,1.0,0.53,-0.86,20.2,2022-03-04 10:33:47.589,2
342,7108,1.47,-0.46,-1.07,20.2,2022-03-04 10:33:47.689,2
343,7128,1.0,-0.59,1.19,20.2,2022-03-04 10:33:47.790,2
344,7150,0.95,0.51,1.03,20.2,2022-03-04 10:33:47.897,2
345,7170,1.84,0.4,-1.15,20.2,2022-03-04 10:33:47.997,2
346,7190,1.03,-0.65,1.57,20.2,2022-03-04 10:33:48.096,2
347,7214,1.2,0.64,-1.0,24.5,2022-03-04 10:33:48.196,2
348,7234,1.02,0.66,-1.13,24.5,2022-03-04 10:33:48.294,2
349,7254,1.47,0.27,0.77,24.5,2022-03-04 10:33:48.393,2
350,7274,1.42,-0.44,-1.12,24.5,2022-03-04 10:33:48.494,2
351,7296,1.76,-0.32,1.01,24.5,2022-03-04 10:33:48.592,2
352,7316,1.45,-0.57,-1.19,24.5,2022-03-04 10:33:48.691,2
353,7336,1.74,0.48,1.16,24.5,2022-03-04 10:33:48.791,2
354,7356,2.09,0.48,-1.41,24.5,2022-03-04 10:33:48.890,2
355,7376,1.69,-0.36,-1.11,24.5,2022-03-04 10:33:48.989,2
356,7396,1.38,0.29,1.18,24.5,2022-03-04 10:33:49.089,2
357,7422,1.16,0.31,1.21,28.4,2022-03-04 10:33:49.198,2
358,7442,1.34,0.41,-1.52,28.4,2022-03-04 10:33:49.298,2
359,7462,1.04,0.35,-1.46,28.4,2022-03-04 10:33:49.396,2
360,7482,1.55,-0.53,-1.23,28.4,2022-03-04 10:33:49.495,2
361,7504,0.92,-0.56,-1.31,28.4,2022-03-04 10:33:49.594,2
362,7524,0.94,-0.31,-1.48,28.4,2022-03-04 10:33:49.694,2
363,7544,1.22,0.36,1.22,28.4,2022-03-04 10:33:49.793,2
364,7564,1.09,0.82,-1.02,28.4,2022-03-04 10:33:49.893,2
365,7584,1.14,0.31,-1.61,28.4,2022-03-04 10:33:49.992,2
366,7604,0.94,-0.63,-1.07,28.4,2022-03-04 10:33:50.094,2
367,7628,0.73,-0.28,0.64,33.1,2022-03-04 10:33:50.190,2
368,7648,1.36,0.19,0.7,33.1,2022-03-04 10:33:50.289,2
369,7668,0.95,0.47,0.96,33.1,2022-03-04 10:33:50.389,2
370,7688,0.75,-0.5,0.98,33.1,2022-03-04 10:33:50.488,2
371,7712,1.02,-0.66,1.0,33.1,2022-03-04 10:33:50.598,2
372,7732,0.93,-0.75,-1.02,33.1,2022-03-04 10:33:50.698,2
373,7752,1.37,-1.82,-0.51,33.1,2022-03-04 10:33:50.799,2
374,7772,0.75,-1.7,-0.68,33.1,2022-03-04 10:33:50.895,2
375,7792,1.12,-1.66,1.22,33.1,2022-03-04 10:33:50.995,2
376,7812,0.91,-1.84,0.64,33.1,2022-03-04 10:33:51.094,2
377,7833,0.75,-1.83,-0.88,35.6,2022-03-04 10:33:51.193,2
378,7856,1.27,-1.61,-1.16,35.6,2022-03-04 10:33:51.293,2
379,7876,0.75,-1.55,-0.34,35.6,2022-03-04 10:33:51.391,2
380,7896,1.16,-1.72,0.57,35.6,2022-03-04 10:33:51.490,2
381,7918,1.43,-1.33,-1.26,35.6,2022-03-04 10:33:51.590,2
382,7938,0.72,-0.75,1.29,35.6,2022-03-04 10:33:51.689,2
383,7960,1.1,-0.81,-0.86,35.6,2022-03-04 10:33:51.799,2
384,7980,0.78,0.42,0.88,35.6,2022-03-04 10:33:51.898,2
385,8000,1.16,-1.1,1.33,35.6,2022-03-04 10:33:51.997,2
386,8020,1.09,-0.86,0.95,35.6,2022-03-04 10:33:52.097,2
387,8044,1.47,-0.95,-0.73,37.8,2022-03-04 10:33:52.197,2
388,8064,1.26,-0.59,-1.53,37.8,2022-03-04 10:33:52.296,2
389,8084,-1.54,-0.72,-1.76,37.8,2022-03-04 10:33:52.394,2
390,8104,0.88,-0.81,-1.52,37.8,2022-03-04 10:33:52.494,2
391,8126,-1.61,-0.7,1.45,37.8,2022-03-04 10:33:52.593,2
392,8146,1.15,-0.88,1.75,37.8,2022-03-04 10:33:52.692,2
393,8166,-1.25,-0.89,2.01,37.8,2022-03-04 10:33:52.791,2
394,8186,0.57,0.6,2.13,37.8,2022-03-04 10:33:52.890,2
395,8206,-0.82,0.6,2.36,37.8,2022-03-04 10:33:52.990,2
396,8226,1.63,0.95,-2.01,37.8,2022-03-04 10:33:53.089,2
397,8248,0.96,-0.68,1.58,41.4,2022-03-04 10:33:53.198,2
398,8272,-0.82,0.67,2.0,41.4,2022-03-04 10:33:53.298,2
399,8292,0.75,-0.91,-1.63,41.4,2022-03-04 10:33:53.397,2
400,8312,0.69,-0.98,-0.79,41.4,2022-03-04 10:33:53.497,2
401,8334,0.73,-0.92,1.56,41.4,2022-03-04 10:33:53.597,2
402,8354,-0.5,-0.63,1.35,41.4,2022-03-04 10:33:53.696,2
403,8374,0.92,-1.04,0.44,41.4,2022-03-04 10:33:53.796,2
404,8394,-1.0,-0.66,0.69,41.4,2022-03-04 10:33:53.893,2
405,8414,-0.87,-0.64,-0.91,41.4,2022-03-04 10:33:53.992,2
406,8434,0.35,-0.72,-1.24,41.4,2022-03-04 10:33:54.091,2
407,8458,-0.52,-0.34,-1.6,44.3,2022-03-04 10:33:54.198,2
408,8480,-0.73,-0.89,-1.74,44.3,2022-03-04 10:33:54.299,2
409,8500,-0.82,-0.8,-0.77,44.3,2022-03-04 10:33:54.399,10
410,8520,0.64,-0.7,1.55,44.3,2022-03-04 10:33:54.498,10
411,8542,0.78,-0.93,0.99,44.3,2022-03-04 10:33:54.599,10
412,8562,0.85,-0.7,1.64,44.3,2022-03-04 10:33:54.698,10
413,8582,-0.97,-1.23,-1.13,44.3,2022-03-04 10:33:54.798,10
414,8602,0.65,-0.9,-1.32,44.3,2022-03-04 10:33:54.898,10
415,8622,0.92,-0.85,-1.13,44.3,2022-03-04 10:33:54.995,10
416,8642,0.82,-0.89,0.94,44.3,2022-03-04 10:33:55.095,10
417,8666,0.74,-1.11,0.57,46.8,2022-03-04 10:33:55.195,10
418,8686,0.73,-0.96,1.14,46.8,2022-03-04 10:33:55.293,10
419,8706,0.41,-0.95,0.85,46.8,2022-03-04 10:33:55.392,10
420,8726,0.78,-1.13,-0.91,46.8,2022-03-04 10:33:55.491,5
421,8748,0.96,-1.56,-0.97,46.8,2022-03-04 10:33:55.590,5
422,8768,0.52,-1.49,-0.97,46.8,2022-03-04 10:33:55.689,5
423,8788,0.71,-1.9,-1.04,46.8,2022-03-04 10:33:55.788,5
424,8810,0.66,-1.86,0.62,46.8,2022-03-04 10:33:55.898,5
425,8830,0.9,-1.43,0.71,46.8,2022-03-04 10:33:55.997,5
426,8848,0.95,-1.47,-1.08,46.8,2022-03-04 10:33:56.087,5
427,8870,1.04,-1.58,1.17,46.8,2022-03-04 10:33:56.196,5
428,8894,1.15,-1.44,0.87,47.2,2022-03-04 10:33:56.296,5
429,8914,0.78,-1.65,-0.97,47.2,2022-03-04 10:33:56.395,5
430,8934,0.9,-1.66,-1.03,47.2,2022-03-04 10:33:56.496,5
431,8956,0.87,-1.69,0.56,47.2,2022-03-04 10:33:56.594,5
432,8976,0.92,-1.71,1.26,47.2,2022-03-04 10:33:56.695,5
433,8996,1.11,-1.68,0.81,47.2,2022-03-04 10:33:56.791,5
434,9016,1.0,-1.61,0.64,47.2,2022-03-04 10:33:56.894,5
435,9036,1.12,-1.86,-0.92,47.2,2022-03-04 10:33:56.990,5
436,9058,1.3,-2.05,-0.79,47.2,2022-03-04 10:33:57.099,5
437,9080,1.56,-2.06,-0.84,47.2,2022-03-04 10:33:57.188,5
438,9102,1.08,-2.1,-0.87,46.1,2022-03-04 10:33:57.297,5
439,9120,0.78,-1.95,-1.01,46.1,2022-03-04 10:33:57.387,5
440,9142,0.78,-2.01,0.47,46.1,2022-03-04 10:33:57.496,5
441,9164,0.58,-2.1,0.71,46.1,2022-03-04 10:33:57.596,5
442,9184,1.0,-1.99,0.6,46.1,2022-03-04 10:33:57.694,5
443,9204,0.79,-2.01,0.67,46.1,2022-03-04 10:33:57.795,5
444,9224,1.06,-2.13,0.72,46.1,2022-03-04 10:33:57.893,5
445,9244,0.51,-2.05,-0.87,46.1,2022-03-04 10:33:57.993,5
446,9264,0.59,-1.98,-0.65,46.1,2022-03-04 10:33:58.092,5
447,9288,0.62,-2.25,0.83,46.1,2022-03-04 10:33:58.193,5
448,9308,0.69,-2.13,-0.87,43.6,2022-03-04 10:33:58.293,5
449,9330,0.81,-2.28,-0.69,43.6,2022-03-04 10:33:58.399,5
450,9350,0.79,-1.95,0.53,43.6,2022-03-04 10:33:58.499,5
451,9372,0.51,-2.1,-0.3,43.6,2022-03-04 10:33:58.598,5
452,9392,1.04,-2.07,-0.75,43.6,2022-03-04 10:33:58.698,5
453,9412,0.76,-2.05,-1.04,43.6,2022-03-04 10:33:58.797,5
454,9432,0.75,-2.02,-0.88,43.6,2022-03-04 10:33:58.896,5
455,9452,-0.74,-1.86,-0.9,43.6,2022-03-04 10:33:58.996,5
456,9470,-0.66,-1.98,0.43,43.6,2022-03-04 10:33:59.084,5
457,9496,0.8,-1.89,-0.72,43.6,2022-03-04 10:33:59.196,5
458,9516,0.54,-1.94,-0.76,40.3,2022-03-04 10:33:59.294,5
459,9536,1.04,-2.21,-0.53,40.3,2022-03-04 10:33:59.393,5
460,9556,0.48,-2.29,-0.43,40.3,2022-03-04 10:33:59.492,5
461,9578,0.5,-2.4,-0.42,40.3,2022-03-04 10:33:59.592,5
462,9598,0.74,-2.36,-0.42,40.3,2022-03-04 10:33:59.690,5
463,9620,0.58,-2.37,-1.02,40.3,2022-03-04 10:33:59.799,5
464,9640,0.5,-2.5,-0.73,40.3,2022-03-04 10:33:59.898,5
465,9660,0.61,-2.37,-0.5,40.3,2022-03-04 10:33:59.999,5
466,9678,0.74,-2.39,-0.83,40.3,2022-03-04 10:34:00.087,5
467,9704,0.63,-2.79,-0.59,40.3,2022-03-04 10:34:00.196,5
468,9724,0.59,-2.68,-0.59,35.3,2022-03-04 10:34:00.295,5
469,9744,0.58,-2.76,-0.71,35.3,2022-03-04 10:34:00.394,5
470,9764,-0.56,-2.53,-0.4,35.3,2022-03-04 10:34:00.495,5
471,9786,0.4,-2.63,0.4,35.3,2022-03-04 10:34:00.593,5
472,9806,0.53,-2.71,-0.61,35.3,2022-03-04 10:34:00.693,5
473,9826,0.69,-2.63,-0.93,35.3,2022-03-04 10:34:00.792,5
474,9846,0.69,-2.68,-0.88,35.3,2022-03-04 10:34:00.893,5
475,9866,0.43,-2.47,-0.85,35.3,2022-03-04 10:34:00.992,5
476,9886,0.61,-2.39,-0.82,35.3,2022-03-04 10:34:01.092,5
477,9912,0.33,-2.34,-0.71,35.3,2022-03-04 10:34:01.199,5
478,9930,0.47,-2.32,-0.4,28.1,2022-03-04 10:34:01.288,5
479,9952,0.5,-2.35,-0.47,28.1,2022-03-04 10:34:01.397,5
480,9972,0.49,-2.32,-0.68,28.1,2022-03-04 10:34:01.496,5
481,9994,0.38,-2.13,-0.43,28.1,2022-03-04 10:34:01.595,5
482,10014,0.63,-2.12,0.29,28.1,2022-03-04 10:34:01.695,5
483,10034,0.46,-2.17,-0.38,28.1,2022-03-04 10:34:01.794,5
484,10054,0.5,-2.09,0.37,28.1,2022-03-04 10:34:01.895,5
485,10074,0.47,-2.14,-0.74,28.1,2022-03-04 10:34:01.993,5
486,10094,0.49,-2.0,-0.45,28.1,2022-03-04 10:34:02.093,5
487,10118,0.46,-2.14,-0.47,28.1,2022-03-04 10:34:02.192,5
488,10138,0.39,-1.93,-0.43,20.5,2022-03-04 10:34:02.291,5
489,10158,0.33,-2.1,-0.46,20.5,2022-03-04 10:34:02.391,5
490,10180,0.38,-1.86,-0.8,20.5,2022-03-04 10:34:02.499,5
491,10202,0.35,-1.92,-0.47,20.5,2022-03-04 10:34:02.598,5
492,10222,0.51,-1.83,-0.36,20.5,2022-03-04 10:34:02.697,5
493,10242,0.51,-1.8,-0.45,20.5,2022-03-04 10:34:02.797,5
494,10262,0.3,-1.81,-0.39,20.5,2022-03-04 10:34:02.896,5
495,10282,0.45,-1.7,-0.38,20.5,2022-03-04 10:34:02.995,5
496,10302,0.36,-1.76,-0.4,20.5,2022-03-04 10:34:03.096,5
497,10322,0.35,-1.73,-0.39,20.5,2022-03-04 10:34:03.198,5
498,10346,0.48,-1.61,-0.57,20.5,2022-03-04 10:34:03.293,5
499,10366,0.19,-1.39,-0.42,12.2,2022-03-04 10:34:03.393,5
500,10386,0.42,-1.02,-0.38,12.2,2022-03-04 10:34:03.492,5
501,10408,0.36,-0.93,-0.42,12.2,2022-03-04 10:34:03.593,5
502,10428,0.18,-0.72,-0.29,12.2,2022-03-04 10:34:03.690,5
503,10448,0.19,-0.59,-0.14,12.2,2022-03-04 10:34:03.790,5
504,10470,0.16,-0.38,-0.3,12.2,2022-03-04 10:34:03.899,5
505,10490,-0.16,-0.21,-0.34,12.2,2022-03-04 10:34:03.998,5
506,10510,-0.12,0.2,-0.26,12.2,2022-03-04 10:34:04.099,5
507,10534,-0.16,0.34,-0.24,12.2,2022-03-04 10:34:04.196,5
508,10554,-0.17,0.46,-0.24,5.8,2022-03-04 10:34:04.296,5
509,10574,-0.27,0.82,-0.22,5.8,2022-03-04 10:34:04.396,5
510,10594,-0.32,1.21,-0.25,5.8,2022-03-04 10:34:04.496,5
511,10616,-0.33,1.6,-0.25,5.8,2022-03-04 10:34:04.594,5
512,10636,-0.28,1.64,-0.25,5.8,2022-03-04 10:34:04.694,5
513,10656,-0.24,1.69,-0.4,5.8,2022-03-04 10:34:04.793,5
514,10676,-0.53,1.36,-0.28,5.8,2022-03-04 10:34:04.891,5
515,10696,-0.34,1.25,-0.17,5.8,2022-03-04 10:34:04.993,5
516,10716,-0.25,1.34,-0.22,5.8,2022-03-04 10:34:05.093,5
517,10742,-0.24,1.35,-0.2,5.8,2022-03-04 10:34:05.199,5
518,10762,-0.25,1.38,-0.23,4.7,2022-03-04 10:34:05.298,5
519,10782,-0.32,1.32,-0.17,4.7,2022-03-04 10:34:05.397,5
520,10802,-0.29,1.3,-0.17,4.7,2022-03-04 10:34:05.497,0
521,10824,-0.26,1.28,-0.23,4.7,2022-03-04 10:34:05.596,0
522,10844,-0.23,1.24,-0.23,4.7,2022-03-04 10:34:05.696,0
523,10864,-0.3,1.24,-0.16,4.7,2022-03-04 10:34:05.795,0
524,10884,-0.26,1.26,-0.21,4.7,2022-03-04 10:34:05.894,0
525,10904,-0.26,1.23,-0.23,4.7,2022-03-04 10:34:05.994,0
526,10924,-0.24,1.19,-0.23,4.7,2022-03-04 10:34:06.093,0
527,10948,-0.28,1.2,-0.26,4.7,2022-03-04 10:34:06.191,0
528,10968,-0.32,1.17,-0.19,0.4,2022-03-04 10:34:06.291,0
529,10988,-0.29,1.14,-0.44,0.4,2022-03-04 10:34:06.390,0
530,11010,-0.31,1.17,-0.44,0.4,2022-03-04 10:34:06.499,0
531,11032,-0.33,1.14,-0.35,0.4,2022-03-04 10:34:06.598,0
532,11052,-0.26,1.12,-0.2,0.4,2022-03-04 10:34:06.698,0
533,11072,-0.22,1.12,-0.24,0.4,2022-03-04 10:34:06.797,0
534,11092,-0.28,1.14,-0.23,0.4,2022-03-04 10:34:06.897,0
535,11112,-0.27,1.07,-0.26,0.4,2022-03-04 10:34:06.996,0
536,11132,-0.26,1.07,-0.24,0.4,2022-03-04 10:34:07.095,0
537,11156,-0.26,1.09,-0.26,0.4,2022-03-04 10:34:07.194,0
538,11176,-0.21,1.03,-0.24,0.0,2022-03-04 10:34:07.294,0
539,11196,-0.31,1.02,-0.2,0.0,2022-03-04 10:34:07.393,0
540,11216,-0.2,0.98,-0.28,0.0,2022-03-04 10:34:07.493,0
541,11238,-0.24,0.94,-0.25,0.0,2022-03-04 10:34:07.591,0
542,11258,-0.21,0.96,-0.29,0.0,2022-03-04 10:34:07.690,0
543,11278,-0.31,0.9,-0.2,0.0,2022-03-04 10:34:07.790,0
544,11300,-0.25,0.93,-0.2,0.0,2022-03-04 10:34:07.899,0
545,11320,-0.28,0.88,-0.24,0.0,2022-03-04 10:34:07.998,0
546,11340,-0.23,0.83,-0.21,0.0,2022-03-04 10:34:08.099,0
547,11364,-0.28,0.84,-0.29,0.0,2022-03-04 10:34:08.196,0
548,11384,-0.28,0.85,-0.27,0.0,2022-03-04 10:34:08.296,0
549,11404,-0.22,0.79,-0.22,0.0,2022-03-04 10:34:08.395,0
550,11424,-0.19,0.8,-0.27,0.0,2022-03-04 10:34:08.494,0
551,11446,-0.25,0.79,-0.24,0.0,2022-03-04 10:34:08.594,0
552,11466,-0.26,0.71,-0.26,0.0,2022-03-04 10:34:08.693,0
553,11486,-0.19,0.76,-0.31,0.0,2022-03-04 10:34:08.792,0
554,11506,-0.29,0.68,-0.2,0.0,2022-03-04 10:34:08.891,0
555,11526,-0.18,0.66,-0.22,0.0,2022-03-04 10:34:08.991,0
556,11546,-0.26,0.72,-0.28,0.0,2022-03-04 10:34:09.091,0
557,11566,-0.17,0.64,-0.29,0.0,2022-03-04 10:34:09.190,0
558,11592,-0.27,0.63,-0.23,0.0,2022-03-04 10:34:09.299,0
559,11612,-0.24,0.64,-0.27,0.0,2022-03-04 10:34:09.399,0
560,11632,-0.2,0.6,-0.31,0.0,2022-03-04 10:34:09.498,0
561,11654,-0.19,0.59,-0.28,0.0,2022-03-04 10:34:09.596,0
562,11674,-0.28,0.6,-0.26,0.0,2022-03-04 10:34:09.695,0
563,11694,-0.33,0.56,-0.26,0.0,2022-03-04 10:34:09.795,0
564,11714,-0.23,0.55,-0.25,0.0,2022-03-04 10:34:09.895,0
565,11734,-0.2,0.51,-0.28,0.0,2022-03-04 10:34:09.994,0
566,11754,-0.24,0.55,-0.23,0.0,2022-03-04 10:34:10.093,0
567,11778,0.99,1.88,1.16,0.0,2022-03-04 10:34:10.192,0
568,11798,-0.31,0.65,0.88,0.0,2022-03-04 10:34:10.291,0
569,11818,-0.37,0.47,-0.2,0.0,2022-03-04 10:34:10.390,0
570,11838,-0.09,0.44,-0.23,0.0,2022-03-04 10:34:10.490,0
571,11862,-0.25,0.58,-0.34,0.0,2022-03-04 10:34:10.599,0
572,11882,-0.27,0.56,-0.26,0.0,2022-03-04 10:34:10.698,0
573,11902,-0.27,0.51,-0.3,0.0,2022-03-04 10:34:10.797,0
574,11922,-0.27,0.44,-0.3,0.0,2022-03-04 10:34:10.896,0
575,11942,-0.2,0.38,-0.31,0.0,2022-03-04 10:34:10.996,0
576,11962,-0.27,0.47,-0.24,0.0,2022-03-04 10:34:11.095,0
577,11986,-0.2,0.44,-0.29,0.0,2022-03-04 10:34:11.194,0
578,12006,-0.27,0.37,-0.29,0.0,2022-03-04 10:34:11.296,0
579,12026,-0.25,0.38,-0.3,0.0,2022-03-04 10:34:11.393,0
580,12046,-0.22,0.32,-0.39,0.0,2022-03-04 10:34:11.493,0
581,12068,-0.26,0.36,-0.17,0.0,2022-03-04 10:34:11.592,0
582,12088,-0.11,0.33,-0.35,0.0,2022-03-04 10:34:11.691,0
583,12108,-0.19,0.35,-0.41,0.0,2022-03-04 10:34:11.790,0
584,12128,0.19,0.33,-0.45,0.0,2022-03-04 10:34:11.890,0
585,12148,-0.24,0.29,-0.31,0.0,2022-03-04 10:34:11.989,0
586,12168,-0.15,0.31,-0.22,0.0,2022-03-04 10:34:12.088,0
587,12184,-0.18,0.29,-0.26,0.0,2022-03-04 10:34:12.160,0
