,LineNumber,Accel_X,Accel_Y,Accel_Z,Velocity,RealTime,Label
0,36,-0.31,0.76,-0.31,0.0,2022-03-04 10:42:32.892,0
1,56,-0.28,0.74,-0.24,0.0,2022-03-04 10:42:32.990,0
2,76,-0.31,0.73,-0.37,0.0,2022-03-04 10:42:33.089,0
3,102,-0.31,0.7,-0.25,0.0,2022-03-04 10:42:33.198,0
4,122,-0.25,0.69,-0.25,0.0,2022-03-04 10:42:33.298,0
5,142,-0.28,0.66,-0.2,0.0,2022-03-04 10:42:33.398,0
6,160,-0.31,0.69,-0.19,0.0,2022-03-04 10:42:33.486,0
7,184,-0.28,0.66,-0.24,0.0,2022-03-04 10:42:33.597,0
8,204,-0.28,0.62,-0.26,0.0,2022-03-04 10:42:33.696,0
9,224,-0.24,0.64,-0.27,0.0,2022-03-04 10:42:33.798,0
10,244,-0.27,0.65,-0.32,0.0,2022-03-04 10:42:33.894,0
11,264,-0.29,0.59,-0.31,0.0,2022-03-04 10:42:33.992,0
12,284,-0.24,0.55,-0.28,0.0,2022-03-04 10:42:34.093,0
13,308,-0.26,0.6,-0.31,0.0,2022-03-04 10:42:34.194,0
14,328,-0.31,0.64,-0.26,0.0,2022-03-04 10:42:34.290,0
15,350,-0.31,0.56,-0.3,0.0,2022-03-04 10:42:34.399,0
16,370,-0.26,0.56,-0.26,0.0,2022-03-04 10:42:34.499,0
17,392,-0.7,0.71,-0.48,0.0,2022-03-04 10:42:34.598,0
18,412,-0.35,0.45,-0.49,0.0,2022-03-04 10:42:34.698,0
19,432,-0.3,0.58,-0.23,0.0,2022-03-04 10:42:34.797,0
20,452,-0.31,0.63,0.7,0.0,2022-03-04 10:42:34.897,0
21,472,-0.26,0.56,0.29,0.0,2022-03-04 10:42:34.995,0
22,490,-0.31,0.51,0.27,0.0,2022-03-04 10:42:35.084,0
23,516,-0.29,0.52,-0.34,0.0,2022-03-04 10:42:35.195,0
24,536,-0.28,0.54,-0.36,0.0,2022-03-04 10:42:35.294,0
25,556,-0.31,0.48,-0.28,0.0,2022-03-04 10:42:35.392,0
26,576,-0.29,0.48,-0.27,0.0,2022-03-04 10:42:35.491,0
27,598,-0.17,0.55,-0.22,0.0,2022-03-04 10:42:35.591,2
28,618,-0.31,0.55,-0.57,0.0,2022-03-04 10:42:35.689,2
29,640,-0.32,0.91,-0.32,0.0,2022-03-04 10:42:35.799,2
30,660,-0.48,1.03,-0.43,0.0,2022-03-04 10:42:35.898,2
31,680,-0.58,1.62,-0.53,0.0,2022-03-04 10:42:35.998,2
32,700,-0.51,2.22,-0.53,0.0,2022-03-04 10:42:36.098,2
33,724,-0.65,2.44,-0.2,0.0,2022-03-04 10:42:36.197,2
34,744,-0.97,2.59,-0.7,0.0,2022-03-04 10:42:36.296,2
35,764,-1.02,2.82,-0.92,0.0,2022-03-04 10:42:36.394,2
36,784,-0.99,3.06,-1.36,0.0,2022-03-04 10:42:36.496,2
37,806,-1.1,3.15,-1.46,0.0,2022-03-04 10:42:36.595,2
38,826,-0.96,3.68,-1.38,0.0,2022-03-04 10:42:36.694,2
39,846,-1.2,3.58,-1.76,0.0,2022-03-04 10:42:36.792,2
40,866,-0.72,3.75,-1.72,0.0,2022-03-04 10:42:36.892,2
41,886,-0.81,4.0,-1.07,0.0,2022-03-04 10:42:36.991,2
42,906,-0.86,3.86,1.79,0.0,2022-03-04 10:42:37.090,2
43,930,-1.07,3.64,1.56,9.4,2022-03-04 10:42:37.189,2
44,952,-0.81,3.63,-1.56,9.4,2022-03-04 10:42:37.299,2
45,972,-1.15,2.94,-0.69,9.4,2022-03-04 10:42:37.397,2
46,992,-1.37,2.62,-1.18,9.4,2022-03-04 10:42:37.497,2
47,1014,-0.43,2.75,1.11,9.4,2022-03-04 10:42:37.596,2
48,1034,-1.02,2.4,1.22,9.4,2022-03-04 10:42:37.695,2
49,1054,-0.74,1.63,-0.84,9.4,2022-03-04 10:42:37.796,2
50,1074,-0.57,1.94,0.77,9.4,2022-03-04 10:42:37.895,2
51,1094,-0.58,2.12,-0.88,9.4,2022-03-04 10:42:37.994,2
52,1114,-0.5,1.58,-1.06,9.4,2022-03-04 10:42:38.096,2
53,1134,-0.55,1.43,0.61,9.4,2022-03-04 10:42:38.194,2
54,1158,-0.43,1.78,-0.79,15.8,2022-03-04 10:42:38.292,2
55,1178,-0.56,1.91,-0.72,15.8,2022-03-04 10:42:38.390,2
56,1198,-0.67,1.6,-0.75,15.8,2022-03-04 10:42:38.489,2
57,1222,-0.87,1.52,-0.81,15.8,2022-03-04 10:42:38.598,2
58,1242,-0.63,1.66,0.47,15.8,2022-03-04 10:42:38.698,2
59,1262,-0.68,1.71,0.72,15.8,2022-03-04 10:42:38.798,2
60,1282,-0.65,1.52,-0.55,15.8,2022-03-04 10:42:38.896,2
61,1302,-0.75,1.43,-0.31,15.8,2022-03-04 10:42:38.996,2
62,1322,-0.94,1.36,0.73,15.8,2022-03-04 10:42:39.096,2
63,1344,-0.94,1.41,-0.86,20.5,2022-03-04 10:42:39.184,2
64,1366,-0.79,1.26,-0.63,20.5,2022-03-04 10:42:39.293,2
65,1386,-1.09,1.13,-0.74,20.5,2022-03-04 10:42:39.394,2
66,1406,-0.33,0.5,-0.9,20.5,2022-03-04 10:42:39.492,2
67,1428,0.28,-0.65,0.46,20.5,2022-03-04 10:42:39.592,2
68,1448,-0.6,-0.51,-0.34,20.5,2022-03-04 10:42:39.693,2
69,1470,-0.66,-0.43,-0.47,20.5,2022-03-04 10:42:39.799,2
70,1490,0.4,-0.56,-0.95,20.5,2022-03-04 10:42:39.898,2
71,1510,-0.37,-0.6,-0.92,20.5,2022-03-04 10:42:39.998,2
72,1530,-0.42,-0.64,0.7,20.5,2022-03-04 10:42:40.097,2
73,1554,-0.56,-0.68,0.73,22.0,2022-03-04 10:42:40.196,2
74,1574,0.16,-0.59,0.43,22.0,2022-03-04 10:42:40.295,2
75,1594,-0.99,0.96,1.67,22.0,2022-03-04 10:42:40.396,2
76,1614,-1.12,1.62,0.97,22.0,2022-03-04 10:42:40.494,2
77,1636,-0.63,1.73,-1.54,22.0,2022-03-04 10:42:40.594,2
78,1656,-0.7,-0.67,-1.46,22.0,2022-03-04 10:42:40.693,2
79,1676,-0.5,1.32,1.28,22.0,2022-03-04 10:42:40.792,2
80,1696,0.44,0.95,0.96,22.0,2022-03-04 10:42:40.892,2
81,1716,-0.62,1.11,0.76,22.0,2022-03-04 10:42:40.994,2
82,1736,-1.22,1.06,0.74,22.0,2022-03-04 10:42:41.091,2
83,1762,-0.89,1.04,-0.96,25.2,2022-03-04 10:42:41.198,2
84,1782,0.95,1.17,-1.21,25.2,2022-03-04 10:42:41.298,2
85,1802,-0.69,1.1,-0.98,25.2,2022-03-04 10:42:41.397,2
86,1822,-0.74,1.2,1.25,25.2,2022-03-04 10:42:41.497,2
87,1844,-0.48,1.38,1.13,25.2,2022-03-04 10:42:41.597,2
88,1864,-1.08,1.3,-1.43,25.2,2022-03-04 10:42:41.695,2
89,1884,-0.79,1.22,-0.87,25.2,2022-03-04 10:42:41.794,2
90,1904,-0.61,1.48,-0.65,25.2,2022-03-04 10:42:41.894,2
91,1924,-0.79,1.46,-1.0,25.2,2022-03-04 10:42:41.993,2
92,1944,-0.51,1.11,1.45,25.2,2022-03-04 10:42:42.093,2
93,1968,-1.05,1.64,1.09,30.2,2022-03-04 10:42:42.193,2
94,1988,-0.69,1.36,-1.68,30.2,2022-03-04 10:42:42.291,2
95,2008,-0.49,1.4,1.67,30.2,2022-03-04 10:42:42.392,2
96,2028,-0.7,1.29,1.88,30.2,2022-03-04 10:42:42.490,2
97,2052,-0.85,1.43,-2.02,30.2,2022-03-04 10:42:42.599,2
98,2072,-0.55,1.27,-1.72,30.2,2022-03-04 10:42:42.698,2
99,2092,0.46,0.83,1.04,30.2,2022-03-04 10:42:42.797,2
100,2112,0.33,0.58,1.64,30.2,2022-03-04 10:42:42.897,2
101,2132,-0.7,0.78,-1.27,30.2,2022-03-04 10:42:42.997,2
102,2152,-0.94,0.68,-1.41,30.2,2022-03-04 10:42:43.095,2
103,2176,0.59,0.61,1.37,35.3,2022-03-04 10:42:43.195,2
104,2196,-0.56,0.74,-1.71,35.3,2022-03-04 10:42:43.294,2
105,2216,-0.56,0.72,-0.87,35.3,2022-03-04 10:42:43.393,2
106,2236,0.59,-0.73,1.3,35.3,2022-03-04 10:42:43.492,2
107,2258,0.56,-0.87,-0.56,35.3,2022-03-04 10:42:43.593,2
108,2278,-0.49,-1.05,-1.49,35.3,2022-03-04 10:42:43.691,2
109,2300,-0.98,-0.9,0.74,35.3,2022-03-04 10:42:43.799,2
110,2320,0.65,-0.95,1.0,35.3,2022-03-04 10:42:43.899,2
111,2340,-0.69,-1.02,-1.14,35.3,2022-03-04 10:42:43.998,2
112,2360,0.58,-0.99,1.22,35.3,2022-03-04 10:42:44.098,2
113,2384,-0.79,-1.93,1.37,37.1,2022-03-04 10:42:44.196,2
114,2404,-1.19,-1.27,-1.43,37.1,2022-03-04 10:42:44.296,2
115,2424,-0.95,-0.42,-1.31,37.1,2022-03-04 10:42:44.395,2
116,2444,-1.18,1.17,-1.57,37.1,2022-03-04 10:42:44.494,2
117,2466,1.0,-1.12,-1.61,37.1,2022-03-04 10:42:44.594,2
118,2486,-1.33,-0.63,-1.17,37.1,2022-03-04 10:42:44.694,2
119,2506,-0.52,-0.98,-1.12,37.1,2022-03-04 10:42:44.792,2
120,2526,-1.03,-0.45,1.39,37.1,2022-03-04 10:42:44.891,2
121,2546,-0.83,-0.97,0.97,37.1,2022-03-04 10:42:44.991,2
122,2568,-1.03,0.35,-0.6,37.1,2022-03-04 10:42:45.099,2
123,2592,-0.71,-0.56,-1.22,38.9,2022-03-04 10:42:45.199,2
124,2612,-1.16,0.54,-1.1,38.9,2022-03-04 10:42:45.298,2
125,2632,-0.93,0.49,-1.14,38.9,2022-03-04 10:42:45.398,2
126,2652,-1.21,0.59,-0.78,38.9,2022-03-04 10:42:45.497,2
127,2674,-1.43,0.55,-1.13,38.9,2022-03-04 10:42:45.596,2
128,2694,-0.96,0.74,-1.35,38.9,2022-03-04 10:42:45.695,2
129,2714,-0.68,0.75,0.84,38.9,2022-03-04 10:42:45.795,2
130,2734,-0.97,0.59,-1.37,38.9,2022-03-04 10:42:45.894,2
131,2754,-1.79,0.59,-1.35,38.9,2022-03-04 10:42:45.993,2
132,2774,-1.02,0.63,1.53,38.9,2022-03-04 10:42:46.092,2
133,2798,-0.99,0.86,-1.8,42.1,2022-03-04 10:42:46.193,2
134,2818,-1.36,-0.47,1.11,42.1,2022-03-04 10:42:46.291,2
135,2838,0.92,-0.75,-1.66,42.1,2022-03-04 10:42:46.391,2
136,2860,-0.69,0.62,-1.32,42.1,2022-03-04 10:42:46.499,2
137,2882,-0.61,0.66,1.16,42.1,2022-03-04 10:42:46.599,2
138,2902,-0.92,0.55,-1.27,42.1,2022-03-04 10:42:46.698,2
139,2922,-0.56,0.28,0.8,42.1,2022-03-04 10:42:46.797,2
140,2942,-0.75,0.71,0.84,42.1,2022-03-04 10:42:46.896,2
141,2962,-0.8,-0.35,-1.08,42.1,2022-03-04 10:42:46.996,2
142,2982,-1.03,0.45,1.46,42.1,2022-03-04 10:42:47.098,2
143,3006,-1.23,0.55,1.16,44.6,2022-03-04 10:42:47.195,2
144,3026,-0.46,0.4,-0.72,44.6,2022-03-04 10:42:47.294,2
145,3046,-0.41,0.46,0.79,44.6,2022-03-04 10:42:47.393,2
146,3066,0.5,-0.28,0.95,44.6,2022-03-04 10:42:47.492,2
147,3088,-0.76,-0.45,-0.64,44.6,2022-03-04 10:42:47.592,2
148,3108,-0.73,-0.35,-1.29,44.6,2022-03-04 10:42:47.690,2
149,3128,0.55,-0.48,-0.75,44.6,2022-03-04 10:42:47.791,2
150,3150,0.85,-0.42,-1.06,44.6,2022-03-04 10:42:47.899,2
151,3170,1.2,-0.59,1.18,44.6,2022-03-04 10:42:47.998,2
152,3188,0.44,-0.37,0.93,44.6,2022-03-04 10:42:48.089,2
153,3214,0.59,-0.54,0.67,46.4,2022-03-04 10:42:48.197,2
154,3234,0.56,-0.47,-0.99,46.4,2022-03-04 10:42:48.296,2
155,3254,0.62,-0.63,-0.84,46.4,2022-03-04 10:42:48.395,2
156,3274,0.67,-0.57,1.04,46.4,2022-03-04 10:42:48.495,2
157,3296,0.67,-0.71,1.01,46.4,2022-03-04 10:42:48.594,2
158,3316,0.55,-1.25,0.94,46.4,2022-03-04 10:42:48.694,2
159,3336,-0.65,-1.21,-1.5,46.4,2022-03-04 10:42:48.793,10
160,3356,-0.48,-1.12,-1.83,46.4,2022-03-04 10:42:48.892,10
161,3376,-0.56,-0.93,-0.86,46.4,2022-03-04 10:42:48.991,10
162,3396,0.48,-1.11,0.57,46.4,2022-03-04 10:42:49.091,10
163,3420,0.57,-0.94,-0.87,47.2,2022-03-04 10:42:49.190,10
164,3442,0.97,-1.03,-1.12,47.2,2022-03-04 10:42:49.299,10
165,3460,0.54,-0.88,0.88,47.2,2022-03-04 10:42:49.388,10
166,3480,-0.44,-1.03,-0.72,47.2,2022-03-04 10:42:49.490,10
167,3504,-1.02,-1.03,-1.2,47.2,2022-03-04 10:42:49.596,10
168,3524,-0.86,-0.8,1.16,47.2,2022-03-04 10:42:49.697,10
169,3544,2.38,-1.26,2.09,47.2,2022-03-04 10:42:49.795,10
170,3564,-2.18,-1.02,-1.61,47.2,2022-03-04 10:42:49.894,10
171,3584,0.69,-0.91,1.01,47.2,2022-03-04 10:42:49.993,10
172,3604,0.36,-0.68,0.91,47.2,2022-03-04 10:42:50.093,10
173,3628,-0.49,-0.71,-0.48,47.2,2022-03-04 10:42:50.192,10
174,3648,0.64,-0.68,-1.0,47.2,2022-03-04 10:42:50.293,10
175,3668,0.57,-0.71,-0.87,47.2,2022-03-04 10:42:50.391,10
176,3688,0.41,-0.7,-1.16,47.2,2022-03-04 10:42:50.490,10
177,3712,-0.7,-0.57,-0.76,47.2,2022-03-04 10:42:50.599,10
178,3732,-1.21,-0.49,0.86,47.2,2022-03-04 10:42:50.698,10
179,3752,-0.37,-0.51,-0.9,47.2,2022-03-04 10:42:50.798,10
180,3772,-1.1,-0.57,-1.21,47.2,2022-03-04 10:42:50.897,10
181,3792,0.82,-0.66,-0.76,47.2,2022-03-04 10:42:50.996,10
182,3812,-0.89,-0.26,-0.8,47.2,2022-03-04 10:42:51.096,10
183,3836,-0.78,-0.52,-0.67,48.2,2022-03-04 10:42:51.195,10
184,3856,-0.6,-0.54,-1.06,48.2,2022-03-04 10:42:51.294,10
185,3876,-0.63,-0.63,-1.09,48.2,2022-03-04 10:42:51.393,10
186,3896,-0.49,-0.61,0.67,48.2,2022-03-04 10:42:51.493,10
187,3918,-0.55,-0.53,-0.8,48.2,2022-03-04 10:42:51.592,10
188,3938,-0.51,-0.78,-0.33,48.2,2022-03-04 10:42:51.691,10
189,3958,-0.67,-0.53,-0.94,48.2,2022-03-04 10:42:51.790,10
190,3978,-0.81,-0.5,-0.76,48.2,2022-03-04 10:42:51.889,10
191,3998,-0.88,-0.98,-1.12,48.2,2022-03-04 10:42:51.989,10
192,4018,-0.92,-0.62,1.03,48.2,2022-03-04 10:42:52.088,10
193,4044,-1.07,-0.6,-0.67,49.7,2022-03-04 10:42:52.198,10
194,4064,-0.47,-0.57,0.95,49.7,2022-03-04 10:42:52.297,10
195,4084,-0.49,-0.58,-1.02,49.7,2022-03-04 10:42:52.396,10
196,4104,-1.39,-0.55,-1.0,49.7,2022-03-04 10:42:52.495,10
197,4126,-0.72,-0.57,-1.59,49.7,2022-03-04 10:42:52.594,10
198,4146,-1.14,-0.46,-1.06,49.7,2022-03-04 10:42:52.694,10
199,4166,-0.99,-0.57,1.03,49.7,2022-03-04 10:42:52.794,10
200,4186,-1.08,-0.6,0.89,49.7,2022-03-04 10:42:52.893,10
201,4206,-0.6,-0.9,0.82,49.7,2022-03-04 10:42:52.991,10
202,4226,-0.72,-0.79,-0.86,49.7,2022-03-04 10:42:53.091,10
203,4250,0.5,-0.86,-0.92,50.0,2022-03-04 10:42:53.190,10
204,4270,-1.16,-0.61,-1.23,50.0,2022-03-04 10:42:53.290,10
205,4292,-0.71,-0.59,-0.73,50.0,2022-03-04 10:42:53.398,10
206,4310,-0.38,-0.63,-0.81,50.0,2022-03-04 10:42:53.488,10
207,4332,-0.51,-0.62,-0.39,50.0,2022-03-04 10:42:53.587,10
208,4354,-0.35,-0.81,-0.72,50.0,2022-03-04 10:42:53.696,10
209,4374,0.53,-0.7,0.7,50.0,2022-03-04 10:42:53.796,10
210,4394,-0.72,-0.92,0.83,50.0,2022-03-04 10:42:53.895,10
211,4414,0.79,-1.07,-1.14,50.0,2022-03-04 10:42:53.994,10
212,4434,-0.6,-1.12,1.49,50.0,2022-03-04 10:42:54.094,10
213,4458,0.89,-1.08,-1.04,50.0,2022-03-04 10:42:54.192,10
214,4478,-1.13,-1.2,1.11,50.0,2022-03-04 10:42:54.291,10
215,4498,1.59,-0.86,-1.46,50.0,2022-03-04 10:42:54.391,10
216,4518,0.67,-0.71,0.66,50.0,2022-03-04 10:42:54.490,10
217,4540,0.31,-0.88,0.56,50.0,2022-03-04 10:42:54.590,10
218,4560,0.3,-0.7,-0.7,50.0,2022-03-04 10:42:54.688,5
219,4582,-0.35,-0.66,-0.88,50.0,2022-03-04 10:42:54.799,5
220,4602,0.55,-0.98,-0.95,50.0,2022-03-04 10:42:54.899,5
221,4622,-0.41,-0.99,0.66,50.0,2022-03-04 10:42:54.996,5
222,4640,0.5,-1.11,0.56,50.0,2022-03-04 10:42:55.089,5
223,4666,0.57,-1.28,-0.57,50.0,2022-03-04 10:42:55.196,5
224,4686,0.45,-1.25,0.93,49.3,2022-03-04 10:42:55.296,5
225,4706,0.46,-1.31,-0.42,49.3,2022-03-04 10:42:55.393,5
226,4726,0.46,-1.29,-0.78,49.3,2022-03-04 10:42:55.492,5
227,4748,0.39,-1.47,-1.4,49.3,2022-03-04 10:42:55.592,5
228,4768,0.38,-1.39,-0.86,49.3,2022-03-04 10:42:55.691,5
229,4788,0.34,-1.54,-0.76,49.3,2022-03-04 10:42:55.791,5
230,4808,0.39,-1.63,-0.67,49.3,2022-03-04 10:42:55.891,5
231,4828,0.52,-1.48,-0.64,49.3,2022-03-04 10:42:55.989,5
232,4848,0.59,-1.53,0.9,49.3,2022-03-04 10:42:56.088,5
233,4874,0.71,-1.55,1.12,49.3,2022-03-04 10:42:56.198,5
234,4894,0.69,-1.61,-0.83,46.8,2022-03-04 10:42:56.298,5
235,4914,0.48,-1.8,-0.7,46.8,2022-03-04 10:42:56.397,5
236,4934,0.48,-1.48,0.74,46.8,2022-03-04 10:42:56.498,5
237,4956,0.71,-1.79,-1.25,46.8,2022-03-04 10:42:56.595,5
238,4976,0.47,-1.99,-0.51,46.8,2022-03-04 10:42:56.695,5
239,4996,0.58,-1.89,0.42,46.8,2022-03-04 10:42:56.793,5
240,5016,0.55,-1.87,-0.4,46.8,2022-03-04 10:42:56.897,5
241,5036,0.78,-1.98,-0.71,46.8,2022-03-04 10:42:56.992,5
242,5056,0.89,-1.87,-0.77,46.8,2022-03-04 10:42:57.091,5
243,5080,1.03,-1.93,-0.74,46.8,2022-03-04 10:42:57.190,5
244,5102,0.8,-2.1,-0.75,42.8,2022-03-04 10:42:57.299,5
245,5122,0.91,-2.07,-0.46,42.8,2022-03-04 10:42:57.398,5
246,5142,0.65,-1.89,-0.54,42.8,2022-03-04 10:42:57.499,5
247,5164,0.73,-2.02,-0.47,42.8,2022-03-04 10:42:57.598,5
248,5184,0.59,-2.21,-0.78,42.8,2022-03-04 10:42:57.697,5
249,5204,0.7,-1.9,-0.82,42.8,2022-03-04 10:42:57.797,5
250,5224,0.66,-2.01,-0.37,42.8,2022-03-04 10:42:57.896,5
251,5244,1.4,-1.97,-0.68,42.8,2022-03-04 10:42:57.994,5
252,5264,0.74,-1.81,-0.82,42.8,2022-03-04 10:42:58.097,5
253,5288,0.66,-1.43,-0.78,42.8,2022-03-04 10:42:58.193,5
254,5308,0.59,-1.16,-0.54,37.1,2022-03-04 10:42:58.292,5
255,5328,0.77,-1.2,-0.61,37.1,2022-03-04 10:42:58.394,5
256,5348,0.77,-1.03,-0.45,37.1,2022-03-04 10:42:58.490,5
257,5372,1.12,-1.05,-0.56,37.1,2022-03-04 10:42:58.599,5
258,5392,0.72,-0.92,-0.4,37.1,2022-03-04 10:42:58.699,5
259,5408,0.92,-0.9,-0.47,37.1,2022-03-04 10:42:58.779,5
260,5432,0.93,-1.04,0.8,37.1,2022-03-04 10:42:58.898,5
261,5452,0.76,-0.95,0.59,37.1,2022-03-04 10:42:58.998,5
262,5472,0.64,-1.02,0.77,37.1,2022-03-04 10:42:59.098,5
263,5496,0.88,-0.79,-0.48,37.1,2022-03-04 10:42:59.198,5
264,5516,0.72,-0.64,0.95,32.8,2022-03-04 10:42:59.296,5
265,5536,0.59,-0.71,-0.53,32.8,2022-03-04 10:42:59.396,5
266,5556,0.48,-0.47,-0.62,32.8,2022-03-04 10:42:59.493,5
267,5578,0.76,-0.6,-0.38,32.8,2022-03-04 10:42:59.593,5
268,5598,1.07,-0.62,-0.77,32.8,2022-03-04 10:42:59.692,5
269,5618,1.02,-0.77,-0.51,32.8,2022-03-04 10:42:59.791,5
270,5638,0.89,-0.72,-0.46,32.8,2022-03-04 10:42:59.890,5
271,5660,1.15,-0.84,1.01,32.8,2022-03-04 10:42:59.999,5
272,5678,1.25,-0.72,0.63,32.8,2022-03-04 10:43:00.090,5
273,5702,0.93,-0.86,0.64,32.8,2022-03-04 10:43:00.188,5
274,5724,0.7,-0.84,-0.36,29.2,2022-03-04 10:43:00.298,5
275,5744,0.93,-0.92,-0.82,29.2,2022-03-04 10:43:00.398,8
276,5764,0.99,-0.76,-0.38,29.2,2022-03-04 10:43:00.496,8
277,5786,0.34,-0.57,-0.74,29.2,2022-03-04 10:43:00.596,8
278,5806,-0.81,-0.48,-0.63,29.2,2022-03-04 10:43:00.695,8
279,5826,-0.97,-0.55,1.24,29.2,2022-03-04 10:43:00.795,8
280,5846,-1.17,-0.35,-0.56,29.2,2022-03-04 10:43:00.894,8
281,5866,-1.63,0.23,-0.64,29.2,2022-03-04 10:43:00.993,8
282,5886,-1.74,0.18,-0.41,29.2,2022-03-04 10:43:01.092,8
283,5910,-2.39,0.15,-0.58,29.2,2022-03-04 10:43:01.190,8
284,5930,-2.77,-0.44,-0.24,25.9,2022-03-04 10:43:01.290,8
285,5952,-2.91,0.15,-0.73,25.9,2022-03-04 10:43:01.399,8
286,5970,-2.91,0.22,-0.83,25.9,2022-03-04 10:43:01.489,8
287,5994,-3.17,-0.25,-0.35,25.9,2022-03-04 10:43:01.598,8
288,6014,-3.27,-0.3,0.63,25.9,2022-03-04 10:43:01.697,8
289,6034,-4.15,-0.28,0.54,25.9,2022-03-04 10:43:01.796,8
290,6054,-3.41,-0.49,-0.72,25.9,2022-03-04 10:43:01.896,8
291,6074,-3.55,-0.23,0.39,25.9,2022-03-04 10:43:01.995,8
292,6094,-4.1,-0.48,0.46,25.9,2022-03-04 10:43:02.094,8
293,6118,-4.17,-0.59,0.84,28.8,2022-03-04 10:43:02.193,8
294,6138,-4.49,-0.69,0.54,28.8,2022-03-04 10:43:02.294,8
295,6158,-4.56,-0.65,0.76,28.8,2022-03-04 10:43:02.393,8
296,6178,-4.44,-0.67,0.46,28.8,2022-03-04 10:43:02.491,8
297,6200,-4.82,-1.11,-0.58,28.8,2022-03-04 10:43:02.590,8
298,6222,-4.71,-0.88,0.93,28.8,2022-03-04 10:43:02.699,8
299,6242,-5.2,-1.2,0.6,28.8,2022-03-04 10:43:02.799,8
300,6262,-4.92,-1.22,-0.59,28.8,2022-03-04 10:43:02.897,8
301,6282,-4.7,-1.06,0.51,28.8,2022-03-04 10:43:02.997,8
302,6300,-4.71,-1.44,0.65,28.8,2022-03-04 10:43:03.086,8
303,6326,-4.77,-1.31,0.75,28.8,2022-03-04 10:43:03.196,8
304,6346,-4.69,-1.6,-0.59,25.2,2022-03-04 10:43:03.295,8
305,6366,-4.78,-1.38,0.62,25.2,2022-03-04 10:43:03.396,8
306,6386,-4.83,-1.75,0.98,25.2,2022-03-04 10:43:03.494,8
307,6408,-4.41,-1.62,1.13,25.2,2022-03-04 10:43:03.593,8
308,6428,-5.08,-1.76,-0.93,25.2,2022-03-04 10:43:03.694,8
309,6448,-5.08,-1.72,0.95,25.2,2022-03-04 10:43:03.792,8
310,6468,-5.04,-1.74,0.93,25.2,2022-03-04 10:43:03.892,8
311,6488,-3.96,-1.81,0.76,25.2,2022-03-04 10:43:03.993,8
312,6508,-4.31,-1.98,0.89,25.2,2022-03-04 10:43:04.089,8
313,6534,-4.27,-1.96,-0.83,25.2,2022-03-04 10:43:04.199,8
314,6554,-3.74,-2.09,0.6,24.5,2022-03-04 10:43:04.297,8
315,6574,-4.18,-1.99,-1.03,24.5,2022-03-04 10:43:04.397,8
316,6594,-4.22,-2.26,0.69,24.5,2022-03-04 10:43:04.496,8
317,6616,-4.83,-2.34,-0.71,24.5,2022-03-04 10:43:04.595,8
318,6636,-4.06,-2.54,-1.07,24.5,2022-03-04 10:43:04.695,8
319,6656,-4.08,-2.75,1.27,24.5,2022-03-04 10:43:04.799,8
320,6676,-4.32,-2.71,-0.98,24.5,2022-03-04 10:43:04.893,8
321,6696,-4.29,-2.84,-0.91,24.5,2022-03-04 10:43:04.994,8
322,6716,-4.08,-2.76,1.52,24.5,2022-03-04 10:43:05.093,8
323,6740,-3.96,-2.5,-0.87,24.5,2022-03-04 10:43:05.193,8
324,6760,-4.52,-2.42,0.77,18.0,2022-03-04 10:43:05.292,8
325,6782,-3.9,-2.3,0.81,18.0,2022-03-04 10:43:05.399,8
326,6802,-4.89,-2.18,0.8,18.0,2022-03-04 10:43:05.499,8
327,6824,-4.59,-2.57,-0.86,18.0,2022-03-04 10:43:05.598,8
328,6844,-4.99,-2.28,-0.98,18.0,2022-03-04 10:43:05.697,8
329,6864,-4.36,-2.21,1.39,18.0,2022-03-04 10:43:05.798,8
330,6884,-4.58,-2.36,1.39,18.0,2022-03-04 10:43:05.897,8
331,6904,-4.74,-2.18,1.67,18.0,2022-03-04 10:43:05.995,8
332,6924,-4.08,-2.21,1.16,18.0,2022-03-04 10:43:06.094,8
333,6948,-5.19,-2.23,-1.17,20.5,2022-03-04 10:43:06.193,8
334,6968,-4.3,-1.77,-0.63,20.5,2022-03-04 10:43:06.293,8
335,6988,-3.21,-1.56,0.82,20.5,2022-03-04 10:43:06.392,8
336,7008,-2.92,-1.48,1.43,20.5,2022-03-04 10:43:06.492,8
337,7030,-2.67,-1.62,0.85,20.5,2022-03-04 10:43:06.591,8
338,7052,-2.55,-1.23,0.65,20.5,2022-03-04 10:43:06.699,8
339,7072,-1.37,-1.28,-0.72,20.5,2022-03-04 10:43:06.799,8
340,7092,-1.59,-0.89,-0.64,20.5,2022-03-04 10:43:06.898,8
341,7112,-1.18,-0.94,-0.7,20.5,2022-03-04 10:43:06.997,8
342,7130,-1.4,-0.75,-0.63,20.5,2022-03-04 10:43:07.087,8
343,7156,-1.33,-0.74,0.64,20.5,2022-03-04 10:43:07.197,8
344,7176,-1.46,-0.46,0.41,19.4,2022-03-04 10:43:07.296,8
345,7196,-0.89,-0.39,0.49,19.4,2022-03-04 10:43:07.395,2
346,7216,-0.71,-0.44,-0.8,19.4,2022-03-04 10:43:07.494,2
347,7238,-0.97,-0.38,-0.72,19.4,2022-03-04 10:43:07.593,2
348,7258,-0.67,-0.35,-0.64,19.4,2022-03-04 10:43:07.692,2
349,7278,-0.45,-0.47,0.7,19.4,2022-03-04 10:43:07.791,2
350,7298,0.94,-0.36,-0.57,19.4,2022-03-04 10:43:07.891,2
351,7318,0.98,-0.57,-1.02,19.4,2022-03-04 10:43:07.991,2
352,7340,1.55,-0.3,-0.65,19.4,2022-03-04 10:43:08.099,2
353,7364,1.22,-0.69,0.6,20.5,2022-03-04 10:43:08.198,2
354,7384,1.27,-0.77,0.68,20.5,2022-03-04 10:43:08.298,2
355,7404,1.65,-0.43,-0.77,20.5,2022-03-04 10:43:08.398,2
356,7424,1.22,-0.44,-1.0,20.5,2022-03-04 10:43:08.496,2
357,7446,1.08,-0.52,-1.04,20.5,2022-03-04 10:43:08.596,2
358,7466,1.63,-0.48,0.69,20.5,2022-03-04 10:43:08.694,2
359,7486,1.52,-0.53,1.19,20.5,2022-03-04 10:43:08.794,2
360,7506,1.59,-0.57,1.24,20.5,2022-03-04 10:43:08.894,2
361,7526,1.77,-0.43,1.53,20.5,2022-03-04 10:43:08.994,2
362,7546,1.12,-0.64,-0.64,20.5,2022-03-04 10:43:09.094,2
363,7566,2.29,-0.59,-1.4,20.5,2022-03-04 10:43:09.193,2
364,7590,2.13,-0.87,1.82,25.2,2022-03-04 10:43:09.290,2
365,7610,1.85,-0.59,1.05,25.2,2022-03-04 10:43:09.390,2
366,7632,1.66,-0.56,-1.21,25.2,2022-03-04 10:43:09.498,2
367,7654,2.27,-0.55,-1.33,25.2,2022-03-04 10:43:09.598,2
368,7674,1.91,-0.33,1.25,25.2,2022-03-04 10:43:09.697,2
369,7694,1.65,-0.75,1.34,25.2,2022-03-04 10:43:09.798,2
370,7714,1.18,-0.41,-1.14,25.2,2022-03-04 10:43:09.896,2
371,7734,0.84,-0.47,-0.73,25.2,2022-03-04 10:43:09.995,2
372,7754,0.73,-0.44,-0.64,25.2,2022-03-04 10:43:10.094,2
373,7776,0.68,-0.63,0.76,28.1,2022-03-04 10:43:10.198,2
374,7798,0.64,-0.51,-0.81,28.1,2022-03-04 10:43:10.293,2
375,7818,1.2,-0.57,-1.08,28.1,2022-03-04 10:43:10.392,2
376,7838,0.7,-0.41,-1.13,28.1,2022-03-04 10:43:10.491,2
377,7860,1.03,-0.7,-1.01,28.1,2022-03-04 10:43:10.591,2
378,7880,1.13,-0.75,-0.94,28.1,2022-03-04 10:43:10.692,2
379,7900,1.02,-0.66,1.06,28.1,2022-03-04 10:43:10.792,2
380,7922,0.68,-0.69,-1.14,28.1,2022-03-04 10:43:10.899,2
381,7942,0.98,-0.6,0.92,28.1,2022-03-04 10:43:10.998,2
382,7962,0.66,-0.57,-1.19,28.1,2022-03-04 10:43:11.097,2
383,7986,0.55,-0.72,-0.78,30.6,2022-03-04 10:43:11.197,2
384,8006,0.37,-1.28,-1.35,30.6,2022-03-04 10:43:11.296,2
385,8026,0.84,-1.57,-0.64,30.6,2022-03-04 10:43:11.395,2
386,8046,-0.67,-1.43,0.92,30.6,2022-03-04 10:43:11.495,2
387,8068,1.07,-1.68,-0.63,30.6,2022-03-04 10:43:11.593,2
388,8088,0.47,-1.5,-0.58,30.6,2022-03-04 10:43:11.693,2
389,8108,0.57,-1.84,-0.81,30.6,2022-03-04 10:43:11.793,2
390,8128,0.7,-1.44,-0.73,30.6,2022-03-04 10:43:11.891,2
391,8148,0.96,-1.44,-0.68,30.6,2022-03-04 10:43:11.990,2
392,8168,0.62,-1.5,-0.39,30.6,2022-03-04 10:43:12.094,2
393,8194,0.7,-1.22,-0.8,32.4,2022-03-04 10:43:12.198,2
394,8214,0.78,-1.1,-0.9,32.4,2022-03-04 10:43:12.298,2
395,8234,0.54,-0.53,-0.83,32.4,2022-03-04 10:43:12.397,2
396,8254,0.47,-1.5,-0.65,32.4,2022-03-04 10:43:12.498,2
397,8276,0.66,-0.81,-0.6,32.4,2022-03-04 10:43:12.596,2
398,8296,0.97,-0.63,-0.79,32.4,2022-03-04 10:43:12.695,2
399,8316,0.7,-0.74,-0.91,32.4,2022-03-04 10:43:12.794,2
400,8336,1.12,-0.65,-0.75,32.4,2022-03-04 10:43:12.894,2
401,8356,-0.54,-0.71,-0.6,32.4,2022-03-04 10:43:12.993,2
402,8376,0.53,-0.7,-0.71,32.4,2022-03-04 10:43:13.095,2
403,8400,-0.56,-0.64,-1.24,34.2,2022-03-04 10:43:13.191,2
404,8420,-0.81,-0.53,0.67,34.2,2022-03-04 10:43:13.291,2
405,8440,0.54,-0.69,-0.44,34.2,2022-03-04 10:43:13.390,2
406,8462,-0.61,-0.74,0.85,34.2,2022-03-04 10:43:13.499,2
407,8482,0.64,-0.87,1.0,34.2,2022-03-04 10:43:13.589,2
408,8504,0.76,-0.75,-0.83,34.2,2022-03-04 10:43:13.698,2
409,8524,0.8,-0.72,-0.98,34.2,2022-03-04 10:43:13.797,2
410,8544,-0.89,-0.91,-0.79,34.2,2022-03-04 10:43:13.897,2
411,8564,0.36,-0.83,0.58,34.2,2022-03-04 10:43:13.997,2
412,8584,0.73,-0.9,-0.82,34.2,2022-03-04 10:43:14.096,2
413,8608,-0.52,-0.86,-0.85,36.4,2022-03-04 10:43:14.195,2
414,8628,-0.62,-0.7,0.39,36.4,2022-03-04 10:43:14.294,2
415,8648,-0.96,-0.64,-0.9,36.4,2022-03-04 10:43:14.393,2
416,8668,0.8,-0.61,-0.78,36.4,2022-03-04 10:43:14.492,2
417,8690,-0.86,-0.87,-0.93,36.4,2022-03-04 10:43:14.592,2
418,8710,0.7,-0.57,-0.62,36.4,2022-03-04 10:43:14.690,2
419,8730,0.82,-0.72,-0.56,36.4,2022-03-04 10:43:14.790,2
420,8752,-0.41,-0.83,-0.73,36.4,2022-03-04 10:43:14.899,2
421,8772,0.83,-0.67,-0.57,36.4,2022-03-04 10:43:14.998,2
422,8790,0.95,-0.82,-0.6,36.4,2022-03-04 10:43:15.087,2
423,8816,0.31,-0.71,-0.7,37.8,2022-03-04 10:43:15.196,2
424,8836,0.48,-0.74,-0.52,37.8,2022-03-04 10:43:15.296,2
425,8856,-0.51,-0.66,-0.7,37.8,2022-03-04 10:43:15.395,2
426,8876,0.8,-0.59,0.67,37.8,2022-03-04 10:43:15.494,2
427,8898,-0.56,-0.53,-0.83,37.8,2022-03-04 10:43:15.594,2
428,8918,-0.89,-0.62,-0.42,37.8,2022-03-04 10:43:15.693,2
429,8938,-0.62,-0.65,-0.69,37.8,2022-03-04 10:43:15.792,2
430,8958,-1.19,-0.53,-1.08,37.8,2022-03-04 10:43:15.891,2
431,8978,-0.58,-0.75,-1.08,37.8,2022-03-04 10:43:15.991,2
432,8998,-0.92,-0.95,1.18,37.8,2022-03-04 10:43:16.090,2
433,9022,-1.32,-0.5,-0.85,39.6,2022-03-04 10:43:16.189,2
434,9044,0.99,-0.56,1.02,39.6,2022-03-04 10:43:16.298,2
435,9064,-0.96,-0.49,-1.17,39.6,2022-03-04 10:43:16.397,2
436,9084,1.15,-0.49,0.8,39.6,2022-03-04 10:43:16.497,2
437,9106,-0.79,-0.61,0.58,39.6,2022-03-04 10:43:16.596,2
438,9126,-0.65,-0.42,-1.29,39.6,2022-03-04 10:43:16.695,2
439,9146,-0.94,-0.4,-1.59,39.6,2022-03-04 10:43:16.795,2
440,9166,-1.48,-0.36,-1.15,39.6,2022-03-04 10:43:16.894,2
441,9186,-0.57,-0.53,0.65,39.6,2022-03-04 10:43:16.993,2
442,9206,-0.82,-0.3,-0.79,39.6,2022-03-04 10:43:17.097,2
443,9230,0.61,-0.36,0.75,41.8,2022-03-04 10:43:17.192,2
444,9250,-1.63,-0.54,1.89,41.8,2022-03-04 10:43:17.291,2
445,9270,-0.91,-1.0,-0.8,41.8,2022-03-04 10:43:17.390,2
446,9290,0.62,-1.16,-0.66,41.8,2022-03-04 10:43:17.490,2
447,9312,-0.76,-1.13,-0.98,41.8,2022-03-04 10:43:17.588,2
448,9334,-0.68,-1.22,-0.5,41.8,2022-03-04 10:43:17.699,2
449,9354,-0.53,-1.09,-0.37,41.8,2022-03-04 10:43:17.797,10
450,9374,-0.43,-1.28,-0.92,41.8,2022-03-04 10:43:17.896,10
451,9394,-0.76,-1.02,0.62,41.8,2022-03-04 10:43:17.996,10
452,9414,0.74,-1.05,0.6,41.8,2022-03-04 10:43:18.095,10
453,9438,-0.52,-1.06,-0.57,42.1,2022-03-04 10:43:18.194,10
454,9458,-0.53,-1.06,0.51,42.1,2022-03-04 10:43:18.294,10
455,9478,-0.57,-0.78,-0.87,42.1,2022-03-04 10:43:18.393,10
456,9498,-0.81,-0.51,-1.06,42.1,2022-03-04 10:43:18.492,10
457,9520,-0.61,-0.57,-1.22,42.1,2022-03-04 10:43:18.592,10
458,9540,-0.74,-0.77,-0.76,42.1,2022-03-04 10:43:18.691,10
459,9560,-1.25,-0.59,-0.82,42.1,2022-03-04 10:43:18.790,10
460,9582,-0.72,-0.69,-0.93,42.1,2022-03-04 10:43:18.899,10
461,9600,-0.73,-0.7,0.7,42.1,2022-03-04 10:43:18.988,10
462,9622,-0.86,-0.76,0.65,42.1,2022-03-04 10:43:19.099,10
463,9646,-0.73,-0.49,-0.99,42.8,2022-03-04 10:43:19.199,10
464,9666,-0.72,-0.56,-0.67,42.8,2022-03-04 10:43:19.296,10
465,9686,-0.91,-0.63,-0.9,42.8,2022-03-04 10:43:19.398,10
466,9706,-1.23,-0.5,-1.27,42.8,2022-03-04 10:43:19.495,10
467,9728,-1.23,-0.72,0.81,42.8,2022-03-04 10:43:19.595,10
468,9748,-1.28,-0.52,-0.74,42.8,2022-03-04 10:43:19.693,10
469,9768,1.19,-0.56,0.81,42.8,2022-03-04 10:43:19.792,10
470,9788,0.78,-0.63,-0.74,42.8,2022-03-04 10:43:19.891,10
471,9808,0.8,-0.53,0.81,42.8,2022-03-04 10:43:19.991,10
472,9828,-0.45,-0.42,-0.84,42.8,2022-03-04 10:43:20.090,10
473,9854,0.38,-0.65,-1.07,44.3,2022-03-04 10:43:20.199,10
474,9874,-0.7,-0.38,-0.9,44.3,2022-03-04 10:43:20.299,10
475,9894,0.48,-0.56,-0.53,44.3,2022-03-04 10:43:20.398,10
476,9914,-0.61,-0.51,-0.6,44.3,2022-03-04 10:43:20.498,10
477,9936,0.42,-0.5,-0.6,44.3,2022-03-04 10:43:20.598,10
478,9956,-0.65,-0.74,0.62,44.3,2022-03-04 10:43:20.696,10
479,9976,-0.59,-0.68,0.86,44.3,2022-03-04 10:43:20.795,10
480,9996,0.62,-0.64,0.57,44.3,2022-03-04 10:43:20.894,10
481,10016,-0.7,-0.57,-1.18,44.3,2022-03-04 10:43:20.993,10
482,10036,-1.05,-0.61,-1.0,44.3,2022-03-04 10:43:21.093,10
483,10060,0.6,-0.64,-1.31,45.0,2022-03-04 10:43:21.193,10
484,10080,-0.78,-0.47,0.62,45.0,2022-03-04 10:43:21.291,10
485,10100,-0.67,-0.54,-1.19,45.0,2022-03-04 10:43:21.390,10
486,10120,0.48,-0.45,-1.14,45.0,2022-03-04 10:43:21.491,10
487,10144,-0.47,-0.88,0.59,45.0,2022-03-04 10:43:21.599,10
488,10164,-0.56,-0.26,-0.49,45.0,2022-03-04 10:43:21.699,10
489,10182,-0.38,-0.5,-0.64,45.0,2022-03-04 10:43:21.787,10
490,10204,-0.84,-0.55,-0.64,45.0,2022-03-04 10:43:21.898,10
491,10224,-0.5,-0.47,-0.5,45.0,2022-03-04 10:43:21.999,10
492,10244,-0.59,-0.37,-0.56,45.0,2022-03-04 10:43:22.097,10
493,10268,-0.3,-0.49,-0.42,45.7,2022-03-04 10:43:22.194,10
494,10288,-0.73,-0.47,0.6,45.7,2022-03-04 10:43:22.294,10
495,10308,-0.62,-0.36,0.43,45.7,2022-03-04 10:43:22.393,10
496,10328,-0.99,-0.33,0.35,45.7,2022-03-04 10:43:22.492,10
497,10350,0.59,-0.37,0.98,45.7,2022-03-04 10:43:22.591,10
498,10370,-0.38,-0.38,-0.81,45.7,2022-03-04 10:43:22.691,10
499,10390,-0.61,0.59,-0.78,45.7,2022-03-04 10:43:22.790,10
500,10410,-0.67,-0.27,-0.69,45.7,2022-03-04 10:43:22.890,10
501,10432,-0.69,0.4,-0.97,45.7,2022-03-04 10:43:22.999,10
502,10450,-0.3,-0.34,-1.11,45.7,2022-03-04 10:43:23.088,10
503,10476,0.66,-0.27,0.59,46.8,2022-03-04 10:43:23.198,10
504,10496,0.98,0.34,0.45,46.8,2022-03-04 10:43:23.297,10
505,10516,0.42,-0.39,-0.78,46.8,2022-03-04 10:43:23.397,10
506,10536,-0.52,-0.33,-0.8,46.8,2022-03-04 10:43:23.497,10
507,10558,-0.71,-0.58,-1.05,46.8,2022-03-04 10:43:23.594,10
508,10578,0.47,-0.61,-1.2,46.8,2022-03-04 10:43:23.697,10
509,10598,0.65,-0.37,-0.56,46.8,2022-03-04 10:43:23.792,10
510,10618,0.52,-0.49,0.55,46.8,2022-03-04 10:43:23.892,5
511,10638,0.83,-0.68,0.59,46.8,2022-03-04 10:43:23.991,5
512,10658,0.59,-0.75,-0.74,46.8,2022-03-04 10:43:24.094,5
513,10678,0.67,-0.9,0.49,46.8,2022-03-04 10:43:24.190,5
514,10702,0.3,-0.8,-0.88,47.5,2022-03-04 10:43:24.289,5
515,10724,0.62,-0.82,-0.57,47.5,2022-03-04 10:43:24.399,5
516,10744,0.39,-0.93,0.59,47.5,2022-03-04 10:43:24.497,5
517,10766,-0.68,-0.8,-0.62,47.5,2022-03-04 10:43:24.598,5
518,10786,0.48,-1.16,-0.8,47.5,2022-03-04 10:43:24.696,5
519,10806,0.6,-1.28,-0.75,47.5,2022-03-04 10:43:24.796,5
520,10826,0.46,-1.42,-0.58,47.5,2022-03-04 10:43:24.895,5
521,10846,0.59,-1.27,-0.9,47.5,2022-03-04 10:43:24.995,5
522,10866,0.36,-1.38,-0.9,47.5,2022-03-04 10:43:25.093,5
523,10890,0.67,-1.55,-0.27,47.5,2022-03-04 10:43:25.193,5
524,10910,0.72,-1.71,0.84,46.4,2022-03-04 10:43:25.292,5
525,10930,0.81,-1.98,-0.63,46.4,2022-03-04 10:43:25.391,5
526,10950,0.76,-2.11,-1.02,46.4,2022-03-04 10:43:25.490,5
527,10972,1.27,-2.21,-0.42,46.4,2022-03-04 10:43:25.590,5
528,10994,0.96,-2.54,-0.73,46.4,2022-03-04 10:43:25.699,5
529,11014,0.8,-2.68,-1.15,46.4,2022-03-04 10:43:25.798,5
530,11034,1.12,-2.63,-1.31,46.4,2022-03-04 10:43:25.897,5
531,11054,1.03,-2.69,1.28,46.4,2022-03-04 10:43:25.997,5
532,11074,0.95,-3.01,0.89,46.4,2022-03-04 10:43:26.098,5
533,11098,0.98,-2.96,1.21,46.4,2022-03-04 10:43:26.195,5
534,11118,1.34,-2.94,-1.61,41.8,2022-03-04 10:43:26.295,5
535,11138,1.22,-2.99,-1.08,41.8,2022-03-04 10:43:26.395,5
536,11158,1.38,-2.92,-1.32,41.8,2022-03-04 10:43:26.494,5
537,11180,1.01,-2.82,-1.48,41.8,2022-03-04 10:43:26.592,5
538,11200,0.52,-2.63,0.51,41.8,2022-03-04 10:43:26.691,5
539,11220,0.45,-2.86,-0.78,41.8,2022-03-04 10:43:26.791,5
540,11240,0.54,-2.82,-0.57,41.8,2022-03-04 10:43:26.890,5
541,11260,0.77,-3.07,0.56,41.8,2022-03-04 10:43:26.989,5
542,11282,0.55,-3.1,-0.96,41.8,2022-03-04 10:43:27.099,5
543,11306,0.58,-3.3,-0.56,41.8,2022-03-04 10:43:27.197,5
544,11326,0.68,-3.15,0.41,34.6,2022-03-04 10:43:27.297,5
545,11346,0.63,-3.11,-0.41,34.6,2022-03-04 10:43:27.397,5
546,11366,0.51,-3.1,-0.88,34.6,2022-03-04 10:43:27.498,5
547,11388,0.27,-3.08,-1.07,34.6,2022-03-04 10:43:27.596,5
548,11408,0.32,-3.11,0.44,34.6,2022-03-04 10:43:27.696,5
549,11428,0.59,-3.02,-0.5,34.6,2022-03-04 10:43:27.794,5
550,11448,0.6,-3.07,-0.86,34.6,2022-03-04 10:43:27.894,5
551,11468,0.51,-2.82,0.63,34.6,2022-03-04 10:43:27.991,5
552,11488,0.46,-2.87,-0.36,34.6,2022-03-04 10:43:28.091,5
553,11508,0.37,-2.76,-0.84,34.6,2022-03-04 10:43:28.193,5
554,11534,0.37,-2.75,-0.62,34.6,2022-03-04 10:43:28.299,5
555,11554,0.7,-2.77,0.41,25.6,2022-03-04 10:43:28.398,5
556,11574,0.46,-2.68,-0.52,25.6,2022-03-04 10:43:28.498,5
557,11596,0.55,-2.6,-0.51,25.6,2022-03-04 10:43:28.597,5
558,11616,0.44,-2.66,-0.42,25.6,2022-03-04 10:43:28.698,5
559,11636,0.43,-2.62,-0.29,25.6,2022-03-04 10:43:28.796,5
560,11656,0.45,-2.69,-0.38,25.6,2022-03-04 10:43:28.895,5
561,11676,0.48,-2.55,-0.38,25.6,2022-03-04 10:43:28.994,5
562,11696,0.38,-2.43,-0.43,25.6,2022-03-04 10:43:29.094,5
563,11716,0.31,-2.2,-0.31,25.6,2022-03-04 10:43:29.194,5
564,11740,0.54,-2.1,-0.45,25.6,2022-03-04 10:43:29.298,5
565,11760,0.43,-2.07,-0.39,16.2,2022-03-04 10:43:29.392,5
566,11780,0.28,-1.84,-0.4,16.2,2022-03-04 10:43:29.490,5
567,11802,0.29,-1.47,-0.36,16.2,2022-03-04 10:43:29.590,5
568,11824,0.37,-1.21,-0.18,16.2,2022-03-04 10:43:29.699,5
569,11844,0.38,-1.08,-0.33,16.2,2022-03-04 10:43:29.798,5
570,11864,0.25,-1.0,-0.38,16.2,2022-03-04 10:43:29.897,5
571,11884,0.12,-0.82,-0.35,16.2,2022-03-04 10:43:29.997,5
572,11904,-0.08,-0.7,-0.21,16.2,2022-03-04 10:43:30.097,5
573,11928,0.12,-0.46,-0.26,16.2,2022-03-04 10:43:30.197,5
574,11948,-0.19,-0.39,-0.24,8.3,2022-03-04 10:43:30.295,5
575,11968,-0.16,0.26,-0.19,8.3,2022-03-04 10:43:30.394,5
576,11988,-0.22,0.59,-0.2,8.3,2022-03-04 10:43:30.494,5
577,12010,-0.22,0.63,-0.29,8.3,2022-03-04 10:43:30.593,5
578,12030,-0.27,0.72,-0.27,8.3,2022-03-04 10:43:30.692,5
579,12050,-0.19,0.65,-0.24,8.3,2022-03-04 10:43:30.793,5
580,12070,-0.22,0.77,-0.16,8.3,2022-03-04 10:43:30.892,5
581,12092,-0.34,1.25,-0.24,8.3,2022-03-04 10:43:30.999,5
582,12112,-0.34,1.44,-0.2,8.3,2022-03-04 10:43:31.099,5
583,12136,-0.31,1.58,-0.27,8.3,2022-03-04 10:43:31.197,5
584,12156,-0.31,1.69,-0.26,5.0,2022-03-04 10:43:31.297,5
585,12176,-0.36,1.47,-0.27,5.0,2022-03-04 10:43:31.396,5
586,12196,-0.28,1.27,-0.17,5.0,2022-03-04 10:43:31.496,5
587,12218,-0.32,1.2,-0.26,5.0,2022-03-04 10:43:31.594,5
588,12238,-0.28,1.24,-0.22,5.0,2022-03-04 10:43:31.694,5
589,12258,-0.26,1.32,-0.24,5.0,2022-03-04 10:43:31.794,5
590,12278,-0.29,1.23,-0.22,5.0,2022-03-04 10:43:31.893,5
591,12298,-0.29,1.16,-0.22,5.0,2022-03-04 10:43:31.992,5
592,12318,-0.3,1.16,-0.2,5.0,2022-03-04 10:43:32.093,5
593,12342,-0.26,1.18,-0.29,5.0,2022-03-04 10:43:32.191,5
594,12362,-0.32,1.17,-0.32,4.7,2022-03-04 10:43:32.290,5
595,12384,-0.37,1.11,-0.28,4.7,2022-03-04 10:43:32.399,5
596,12404,-0.21,1.11,-0.32,4.7,2022-03-04 10:43:32.498,5
597,12426,-0.22,1.13,-0.28,4.7,2022-03-04 10:43:32.598,5
598,12446,-0.25,1.06,-0.23,4.7,2022-03-04 10:43:32.697,5
599,12466,-0.22,1.03,-0.18,4.7,2022-03-04 10:43:32.796,5
600,12486,-0.17,0.93,-0.16,4.7,2022-03-04 10:43:32.895,5
601,12506,-0.17,0.89,-0.21,4.7,2022-03-04 10:43:32.995,5
602,12526,-0.28,0.87,-0.22,4.7,2022-03-04 10:43:33.094,5
603,12550,-0.14,0.84,-0.2,4.7,2022-03-04 10:43:33.194,5
604,12570,-0.13,0.85,-0.22,0.4,2022-03-04 10:43:33.293,5
605,12590,-0.21,0.81,-0.19,0.4,2022-03-04 10:43:33.392,5
606,12610,-0.19,0.75,-0.18,0.4,2022-03-04 10:43:33.491,5
607,12632,-0.14,0.74,-0.16,0.4,2022-03-04 10:43:33.593,5
608,12652,-0.11,0.69,-0.18,0.4,2022-03-04 10:43:33.691,5
609,12674,-0.17,0.7,-0.18,0.4,2022-03-04 10:43:33.799,5
610,12694,-0.18,0.67,-0.25,0.4,2022-03-04 10:43:33.898,5
611,12714,-0.13,0.64,-0.19,0.4,2022-03-04 10:43:33.999,5
612,12734,-0.15,0.57,-0.2,0.4,2022-03-04 10:43:34.096,5
613,12758,-0.14,0.51,-0.26,0.4,2022-03-04 10:43:34.195,5
614,12778,-0.15,0.52,-0.24,0.0,2022-03-04 10:43:34.294,5
615,12798,-0.08,0.49,-0.2,0.0,2022-03-04 10:43:34.394,0
616,12818,-0.12,0.47,-0.23,0.0,2022-03-04 10:43:34.493,0
617,12840,-0.11,0.46,-0.23,0.0,2022-03-04 10:43:34.592,0
618,12860,-0.13,0.45,-0.21,0.0,2022-03-04 10:43:34.692,0
619,12880,-0.11,0.43,-0.2,0.0,2022-03-04 10:43:34.792,0
620,12900,-0.11,0.41,-0.2,0.0,2022-03-04 10:43:34.890,0
621,12920,-0.11,0.4,-0.2,0.0,2022-03-04 10:43:34.990,0
622,12940,-0.1,0.39,-0.2,0.0,2022-03-04 10:43:35.091,0
623,12966,-0.09,0.38,-0.23,0.0,2022-03-04 10:43:35.199,0
624,12986,-0.16,0.39,-0.28,0.0,2022-03-04 10:43:35.297,0
625,13006,-0.11,0.36,-0.23,0.0,2022-03-04 10:43:35.396,0
626,13026,-0.09,0.36,-0.27,0.0,2022-03-04 10:43:35.495,0
627,13048,-0.1,0.33,-0.21,0.0,2022-03-04 10:43:35.595,0
628,13068,-0.13,0.33,-0.22,0.0,2022-03-04 10:43:35.694,0
629,13088,-0.09,0.35,-0.24,0.0,2022-03-04 10:43:35.794,0
630,13108,-0.06,0.3,-0.22,0.0,2022-03-04 10:43:35.894,0
631,13128,-0.11,0.28,-0.22,0.0,2022-03-04 10:43:35.992,0
632,13148,-0.12,0.31,-0.2,0.0,2022-03-04 10:43:36.092,0
633,13168,0.11,0.26,-0.19,0.0,2022-03-04 10:43:36.194,0
634,13192,-0.11,0.26,-0.22,0.0,2022-03-04 10:43:36.290,0
635,13214,-0.12,0.24,-0.24,0.0,2022-03-04 10:43:36.399,0
636,13234,-0.1,0.2,-0.21,0.0,2022-03-04 10:43:36.498,0
637,13256,0.06,0.21,-0.29,0.0,2022-03-04 10:43:36.599,0
638,13276,-0.07,0.17,-0.25,0.0,2022-03-04 10:43:36.697,0
639,13296,-0.08,0.16,-0.19,0.0,2022-03-04 10:43:36.796,0
640,13316,-0.08,0.17,-0.25,0.0,2022-03-04 10:43:36.896,0
641,13336,-0.11,0.16,-0.23,0.0,2022-03-04 10:43:36.995,0
642,13356,-0.11,0.15,-0.19,0.0,2022-03-04 10:43:37.094,0
643,13380,-0.11,0.14,-0.19,0.0,2022-03-04 10:43:37.193,0
644,13400,-0.13,0.13,-0.19,0.0,2022-03-04 10:43:37.293,0
645,13420,-0.09,0.1,-0.15,0.0,2022-03-04 10:43:37.392,0
646,13440,-0.08,0.1,-0.2,0.0,2022-03-04 10:43:37.491,0
647,13462,-0.08,0.13,-0.19,0.0,2022-03-04 10:43:37.591,0
648,13482,0.11,0.09,-0.19,0.0,2022-03-04 10:43:37.690,0
649,13504,0.1,0.09,-0.19,0.0,2022-03-04 10:43:37.799,0
650,13524,0.1,0.1,-0.2,0.0,2022-03-04 10:43:37.898,0
651,13544,0.09,0.08,-0.23,0.0,2022-03-04 10:43:37.998,0
652,13562,0.09,0.09,-0.26,0.0,2022-03-04 10:43:38.088,0
653,13588,-0.08,0.09,-0.29,0.0,2022-03-04 10:43:38.197,0
654,13608,-0.07,0.07,-0.28,0.0,2022-03-04 10:43:38.299,0
655,13628,-0.08,0.09,-0.22,0.0,2022-03-04 10:43:38.394,0
656,13648,-0.11,0.08,-0.2,0.0,2022-03-04 10:43:38.494,0
657,13670,-0.11,0.09,-0.21,0.0,2022-03-04 10:43:38.593,0
658,13690,-0.11,0.08,-0.18,0.0,2022-03-04 10:43:38.694,0
659,13710,-0.1,0.07,-0.2,0.0,2022-03-04 10:43:38.791,0
660,13730,0.08,0.08,-0.17,0.0,2022-03-04 10:43:38.892,0
661,13750,0.11,0.06,-0.16,0.0,2022-03-04 10:43:38.990,0
662,13770,0.08,0.08,-0.2,0.0,2022-03-04 10:43:39.090,0
663,13796,0.11,0.06,-0.21,0.0,2022-03-04 10:43:39.198,0
664,13816,0.12,0.06,-0.23,0.0,2022-03-04 10:43:39.298,0
665,13836,0.11,0.09,-0.24,0.0,2022-03-04 10:43:39.397,0
666,13856,-0.07,0.07,-0.26,0.0,2022-03-04 10:43:39.496,0
667,13878,-0.08,0.06,-0.24,0.0,2022-03-04 10:43:39.596,0
668,13898,0.06,0.08,-0.27,0.0,2022-03-04 10:43:39.699,0
669,13918,-0.11,0.08,-0.21,0.0,2022-03-04 10:43:39.794,0
670,13938,-0.19,0.08,-0.2,0.0,2022-03-04 10:43:39.893,0
671,13958,-0.19,0.11,-0.39,0.0,2022-03-04 10:43:39.992,0
672,13978,0.15,0.11,-0.19,0.0,2022-03-04 10:43:40.092,0
673,14000,-0.1,0.06,-0.28,0.0,2022-03-04 10:43:40.198,0
674,14022,0.11,0.08,-0.21,0.0,2022-03-04 10:43:40.290,0
675,14042,0.1,-0.08,-0.18,0.0,2022-03-04 10:43:40.390,0
676,14064,0.11,0.07,-0.24,0.0,2022-03-04 10:43:40.499,0
677,14086,-0.13,0.14,-0.28,0.0,2022-03-04 10:43:40.598,0
678,14104,-0.09,-0.1,-0.24,0.0,2022-03-04 10:43:40.687,0
679,14126,0.14,-0.08,-0.29,0.0,2022-03-04 10:43:40.797,0
680,14146,0.07,0.09,-0.3,0.0,2022-03-04 10:43:40.896,0
681,14166,-0.1,-0.07,-0.23,0.0,2022-03-04 10:43:40.995,0
682,14186,-0.16,-0.09,-0.28,0.0,2022-03-04 10:43:41.094,0
683,14210,0.09,0.09,-0.22,0.0,2022-03-04 10:43:41.193,0
684,14230,0.09,0.06,-0.2,0.0,2022-03-04 10:43:41.293,0
685,14250,-0.11,0.07,-0.19,0.0,2022-03-04 10:43:41.393,0
686,14270,-0.1,0.08,-0.24,0.0,2022-03-04 10:43:41.491,0
687,14292,-0.08,0.07,-0.2,0.0,2022-03-04 10:43:41.590,0
688,14312,0.09,0.05,-0.19,0.0,2022-03-04 10:43:41.690,0
689,14334,-0.1,0.05,-0.19,0.0,2022-03-04 10:43:41.798,0
690,14354,-0.1,0.07,-0.2,0.0,2022-03-04 10:43:41.898,0
691,14374,0.06,0.06,-0.18,0.0,2022-03-04 10:43:41.998,0
692,14394,0.09,0.08,-0.24,0.0,2022-03-04 10:43:42.098,0
693,14418,-0.09,0.07,-0.24,0.0,2022-03-04 10:43:42.196,0
694,14438,-0.08,0.08,-0.22,0.0,2022-03-04 10:43:42.295,0
695,14458,-0.12,-0.09,-0.24,0.0,2022-03-04 10:43:42.394,0
696,14478,-0.13,0.06,-0.23,0.0,2022-03-04 10:43:42.494,0
697,14500,-0.15,-0.08,-0.22,0.0,2022-03-04 10:43:42.593,0
698,14520,-0.15,-0.08,-0.22,0.0,2022-03-04 10:43:42.693,0
699,14540,0.13,0.07,-0.19,0.0,2022-03-04 10:43:42.792,0
700,14560,0.14,-0.08,-0.22,0.0,2022-03-04 10:43:42.890,0
701,14580,-0.09,0.04,-0.21,0.0,2022-03-04 10:43:42.990,0
702,14600,0.08,0.05,-0.23,0.0,2022-03-04 10:43:43.090,0
703,14622,0.14,0.05,-0.2,0.0,2022-03-04 10:43:43.194,0
704,14644,0.1,-0.05,-0.24,0.0,2022-03-04 10:43:43.288,0
705,14666,-0.1,0.06,-0.23,0.0,2022-03-04 10:43:43.397,0
706,14686,-0.09,-0.08,-0.25,0.0,2022-03-04 10:43:43.496,0
707,14708,-0.08,-0.08,-0.26,0.0,2022-03-04 10:43:43.597,0
708,14728,-0.1,0.08,-0.33,0.0,2022-03-04 10:43:43.695,0
709,14748,-0.13,-0.06,-0.21,0.0,2022-03-04 10:43:43.794,0
710,14768,-0.09,-0.08,-0.18,0.0,2022-03-04 10:43:43.896,0
711,14788,-0.13,-0.07,-0.22,0.0,2022-03-04 10:43:43.994,0
712,14808,-0.15,0.08,-0.17,0.0,2022-03-04 10:43:44.093,0
713,14828,-0.13,-0.07,-0.16,0.0,2022-03-04 10:43:44.191,0
714,14852,0.11,0.06,-0.21,0.0,2022-03-04 10:43:44.290,0
715,14872,0.09,0.07,-0.17,0.0,2022-03-04 10:43:44.390,0
716,14894,-0.11,-0.06,-0.21,0.0,2022-03-04 10:43:44.499,0
717,14916,0.1,0.05,-0.24,0.0,2022-03-04 10:43:44.599,0
718,14934,-0.09,0.05,-0.21,0.0,2022-03-04 10:43:44.688,0
719,14956,-0.09,-0.09,-0.29,0.0,2022-03-04 10:43:44.799,0
720,14976,-0.1,-0.09,-0.32,0.0,2022-03-04 10:43:44.896,0
721,14996,-0.09,-0.07,-0.28,0.0,2022-03-04 10:43:44.996,0
722,15016,-0.08,-0.07,-0.24,0.0,2022-03-04 10:43:45.095,0
723,15036,-0.11,0.11,-0.25,0.0,2022-03-04 10:43:45.194,0
724,15060,-0.22,0.24,-0.24,0.0,2022-03-04 10:43:45.293,0
725,15080,-0.3,-0.13,-0.53,0.0,2022-03-04 10:43:45.393,0
726,15100,-0.12,-0.08,-0.25,0.0,2022-03-04 10:43:45.492,0
727,15122,-0.14,-0.15,-0.24,0.0,2022-03-04 10:43:45.591,0
728,15142,0.1,-0.1,-0.27,0.0,2022-03-04 10:43:45.691,0
729,15162,-0.26,0.37,0.41,0.0,2022-03-04 10:43:45.790,0
730,15184,-0.25,0.91,-0.38,0.0,2022-03-04 10:43:45.899,0
731,15204,-0.42,1.16,-0.69,0.0,2022-03-04 10:43:45.999,0
732,15224,0.58,1.24,-0.67,0.0,2022-03-04 10:43:46.099,0
733,15248,-0.69,1.49,-0.86,0.0,2022-03-04 10:43:46.198,0
734,15268,-0.46,1.7,0.38,0.0,2022-03-04 10:43:46.298,0
735,15288,-0.63,2.11,0.58,0.0,2022-03-04 10:43:46.396,0
736,15308,-0.65,2.61,0.92,0.0,2022-03-04 10:43:46.494,0
737,15330,-1.06,2.93,-1.22,0.0,2022-03-04 10:43:46.594,0
738,15350,-1.09,3.29,-1.09,0.0,2022-03-04 10:43:46.693,0
739,15370,-0.72,3.45,-1.67,0.0,2022-03-04 10:43:46.792,0
740,15390,-1.03,3.44,1.39,0.0,2022-03-04 10:43:46.891,0
741,15410,-0.88,3.44,1.32,0.0,2022-03-04 10:43:46.991,0
742,15430,-1.0,3.63,-1.78,0.0,2022-03-04 10:43:47.090,0
743,15456,-1.15,3.55,2.26,8.3,2022-03-04 10:43:47.199,0
744,15476,-1.48,3.35,-2.14,8.3,2022-03-04 10:43:47.298,0
745,15496,-1.03,2.53,1.48,8.3,2022-03-04 10:43:47.398,0
746,15516,-1.15,2.37,-1.2,8.3,2022-03-04 10:43:47.498,0
747,15538,-0.74,2.79,-0.96,8.3,2022-03-04 10:43:47.597,0
748,15558,-1.05,2.81,-1.55,8.3,2022-03-04 10:43:47.696,0
749,15578,-0.84,2.1,-1.44,8.3,2022-03-04 10:43:47.794,0
750,15598,-0.6,1.12,-0.89,8.3,2022-03-04 10:43:47.894,0
751,15618,-0.83,1.71,-0.33,8.3,2022-03-04 10:43:47.993,0
752,15638,-0.72,1.67,-0.92,8.3,2022-03-04 10:43:48.093,0
753,15662,-0.9,1.61,-0.67,12.2,2022-03-04 10:43:48.191,0
754,15682,-0.5,1.3,-0.83,12.2,2022-03-04 10:43:48.291,0
755,15702,-0.66,1.52,-0.76,12.2,2022-03-04 10:43:48.390,0
756,15724,-0.57,1.59,-1.03,12.2,2022-03-04 10:43:48.499,0
757,15744,-0.46,1.37,-0.81,12.2,2022-03-04 10:43:48.589,0
758,15766,-0.39,1.21,0.82,12.2,2022-03-04 10:43:48.699,0
759,15786,0.33,1.34,-0.47,12.2,2022-03-04 10:43:48.798,0
760,15806,-0.72,1.2,-0.95,12.2,2022-03-04 10:43:48.899,0
761,15826,-0.63,1.07,-0.8,12.2,2022-03-04 10:43:48.997,0
762,15846,-0.35,1.06,0.5,12.2,2022-03-04 10:43:49.095,0
763,15870,-0.81,1.26,0.65,20.2,2022-03-04 10:43:49.198,0
764,15890,0.86,1.32,-0.93,20.2,2022-03-04 10:43:49.293,0
765,15910,-0.99,0.98,-1.21,20.2,2022-03-04 10:43:49.393,0
766,15930,-0.95,1.05,-0.9,20.2,2022-03-04 10:43:49.493,0
767,15952,0.65,1.25,0.73,20.2,2022-03-04 10:43:49.591,0
768,15972,0.91,1.19,-0.88,20.2,2022-03-04 10:43:49.690,0
769,15994,0.84,0.87,-0.81,20.2,2022-03-04 10:43:49.799,0
770,16014,-0.78,1.03,-1.51,20.2,2022-03-04 10:43:49.899,0
771,16034,-0.67,0.88,-1.01,20.2,2022-03-04 10:43:49.999,0
772,16052,0.6,0.91,0.91,20.2,2022-03-04 10:43:50.088,0
773,16078,0.73,0.92,1.11,24.5,2022-03-04 10:43:50.197,0
774,16098,0.55,0.72,-1.04,24.5,2022-03-04 10:43:50.296,0
775,16118,-0.52,-0.77,-1.73,24.5,2022-03-04 10:43:50.397,0
776,16138,0.62,-1.14,-0.8,24.5,2022-03-04 10:43:50.497,0
777,16160,0.89,-1.02,0.71,24.5,2022-03-04 10:43:50.596,0
778,16180,0.67,-0.84,0.8,24.5,2022-03-04 10:43:50.695,0
779,16200,0.56,-0.71,-0.81,24.5,2022-03-04 10:43:50.792,0
780,16220,-0.56,-0.74,-0.91,24.5,2022-03-04 10:43:50.891,0
781,16240,1.04,-3.64,-0.9,24.5,2022-03-04 10:43:50.992,0
782,16260,0.87,-4.12,0.63,24.5,2022-03-04 10:43:51.090,0
783,16286,1.01,-4.01,-0.72,24.5,2022-03-04 10:43:51.199,0
784,16306,0.69,-3.98,-0.75,24.1,2022-03-04 10:43:51.299,0
785,16326,0.95,-3.74,-0.44,24.1,2022-03-04 10:43:51.399,0
786,16346,0.7,-3.64,-0.47,24.1,2022-03-04 10:43:51.497,0
787,16368,0.62,-3.44,-0.54,24.1,2022-03-04 10:43:51.598,0
788,16388,0.64,-3.46,-0.47,24.1,2022-03-04 10:43:51.697,0
789,16408,0.68,-3.53,-0.68,24.1,2022-03-04 10:43:51.795,0
790,16428,0.4,-3.41,-0.59,24.1,2022-03-04 10:43:51.894,0
791,16448,0.75,-3.44,-0.44,24.1,2022-03-04 10:43:51.997,0
792,16468,0.63,-3.53,0.29,24.1,2022-03-04 10:43:52.094,0
793,16492,0.78,-3.47,-0.4,24.1,2022-03-04 10:43:52.195,0
794,16512,0.86,-3.46,-0.47,14.0,2022-03-04 10:43:52.291,0
795,16532,0.79,-3.46,-0.48,14.0,2022-03-04 10:43:52.390,0
796,16554,0.6,-3.55,-0.41,14.0,2022-03-04 10:43:52.499,0
797,16576,0.64,-3.26,-0.49,14.0,2022-03-04 10:43:52.599,0
798,16596,0.46,-2.81,-0.41,14.0,2022-03-04 10:43:52.698,0
799,16616,0.47,-2.39,-0.3,14.0,2022-03-04 10:43:52.798,0
800,16636,0.38,-2.24,-0.41,14.0,2022-03-04 10:43:52.898,0
801,16656,0.29,-2.21,-0.32,14.0,2022-03-04 10:43:52.996,0
802,16676,0.25,-2.23,-0.33,14.0,2022-03-04 10:43:53.095,0
803,16700,0.3,-1.99,-0.31,14.0,2022-03-04 10:43:53.195,0
804,16720,-0.12,-0.97,-0.26,8.3,2022-03-04 10:43:53.295,0
805,16740,0.08,-0.44,-0.31,8.3,2022-03-04 10:43:53.395,0
806,16760,0.11,-0.46,-0.42,8.3,2022-03-04 10:43:53.494,0
807,16782,0.07,-0.44,-0.35,8.3,2022-03-04 10:43:53.593,0
808,16802,0.09,-0.54,-0.32,8.3,2022-03-04 10:43:53.691,0
809,16822,0.13,-0.55,-0.28,8.3,2022-03-04 10:43:53.790,0
810,16842,0.13,-0.45,-0.25,8.3,2022-03-04 10:43:53.890,0
811,16864,0.17,-0.48,-0.21,8.3,2022-03-04 10:43:53.999,0
812,16884,-0.11,-0.48,-0.29,8.3,2022-03-04 10:43:54.098,0
813,16908,-0.18,-0.43,-0.4,8.3,2022-03-04 10:43:54.197,0
814,16928,0.14,-0.39,-0.19,5.4,2022-03-04 10:43:54.297,0
815,16948,-0.22,-0.44,-0.67,5.4,2022-03-04 10:43:54.396,0
816,16968,-0.19,-0.32,-0.24,5.4,2022-03-04 10:43:54.496,0
817,16990,-0.18,0.51,-0.25,5.4,2022-03-04 10:43:54.594,0
818,17010,-0.19,0.89,-0.25,5.4,2022-03-04 10:43:54.694,0
819,17030,-0.23,0.91,-0.22,5.4,2022-03-04 10:43:54.793,0
820,17050,-0.17,0.79,-0.26,5.4,2022-03-04 10:43:54.892,0
821,17070,-0.22,0.65,-0.43,5.4,2022-03-04 10:43:54.992,0
822,17090,-0.16,0.56,-0.33,5.4,2022-03-04 10:43:55.093,0
823,17112,-0.18,0.64,-0.24,5.4,2022-03-04 10:43:55.192,0
