,LineNumber,Accel_X,Accel_Y,Accel_Z,Velocity,RealTime,Label
0,28,-0.18,0.13,-0.28,0.0,2022-03-04 10:44:50.896,0
1,48,-0.18,0.12,-0.26,0.0,2022-03-04 10:44:50.996,0
2,68,-0.19,0.06,-0.27,0.0,2022-03-04 10:44:51.095,0
3,92,0.15,0.11,-0.32,0.0,2022-03-04 10:44:51.195,0
4,112,-0.15,0.09,-0.3,0.0,2022-03-04 10:44:51.294,0
5,132,-0.18,0.1,-0.27,0.0,2022-03-04 10:44:51.392,0
6,152,-0.19,0.13,-0.28,0.0,2022-03-04 10:44:51.492,0
7,174,-0.18,0.06,-0.31,0.0,2022-03-04 10:44:51.591,0
8,194,0.15,0.11,-0.29,0.0,2022-03-04 10:44:51.690,0
9,214,-0.18,0.1,-0.28,0.0,2022-03-04 10:44:51.791,0
10,236,0.18,0.11,-0.29,0.0,2022-03-04 10:44:51.899,0
11,256,-0.19,0.12,-0.28,0.0,2022-03-04 10:44:51.998,0
12,276,-0.19,0.06,-0.3,0.0,2022-03-04 10:44:52.098,0
13,300,-0.16,0.1,-0.27,0.0,2022-03-04 10:44:52.196,0
14,320,-0.19,0.1,-0.26,0.0,2022-03-04 10:44:52.296,0
15,340,0.16,0.11,-0.25,0.0,2022-03-04 10:44:52.395,0
16,360,-0.23,0.12,-0.29,0.0,2022-03-04 10:44:52.494,0
17,382,-0.17,0.12,-0.31,0.0,2022-03-04 10:44:52.594,0
18,402,-0.23,0.11,-0.3,0.0,2022-03-04 10:44:52.693,0
19,422,0.36,0.11,-0.32,0.0,2022-03-04 10:44:52.792,0
20,442,-0.22,0.08,-0.26,0.0,2022-03-04 10:44:52.891,0
21,462,-0.32,0.22,0.78,0.0,2022-03-04 10:44:52.991,0
22,482,0.16,-0.11,-0.31,0.0,2022-03-04 10:44:53.090,0
23,508,-0.16,0.09,-0.26,0.0,2022-03-04 10:44:53.199,0
24,528,0.17,0.14,-0.22,0.0,2022-03-04 10:44:53.299,0
25,548,-0.19,0.14,-0.2,0.0,2022-03-04 10:44:53.398,0
26,568,-0.17,0.09,-0.46,0.0,2022-03-04 10:44:53.497,0
27,590,-0.17,0.14,-0.3,0.0,2022-03-04 10:44:53.596,0
28,610,-0.19,0.06,-0.25,0.0,2022-03-04 10:44:53.696,0
29,630,0.17,0.1,-0.27,0.0,2022-03-04 10:44:53.795,0
30,650,-0.19,0.11,-0.26,0.0,2022-03-04 10:44:53.894,2
31,670,-0.2,0.1,-0.57,0.0,2022-03-04 10:44:53.993,2
32,690,-0.16,0.47,-0.43,0.0,2022-03-04 10:44:54.093,2
33,714,-0.45,0.41,0.33,0.0,2022-03-04 10:44:54.192,2
34,734,0.41,0.5,-0.57,0.0,2022-03-04 10:44:54.292,2
35,754,-0.4,0.66,-0.39,0.0,2022-03-04 10:44:54.390,2
36,774,-0.36,0.9,-0.33,0.0,2022-03-04 10:44:54.489,2
37,798,-0.52,1.14,-0.37,0.0,2022-03-04 10:44:54.598,2
38,818,-0.42,1.29,-0.42,0.0,2022-03-04 10:44:54.698,2
39,838,-0.56,1.61,-0.54,0.0,2022-03-04 10:44:54.797,2
40,858,-0.61,1.9,-0.7,0.0,2022-03-04 10:44:54.896,2
41,878,-0.76,2.11,0.51,0.0,2022-03-04 10:44:54.995,2
42,898,-0.83,2.21,-0.77,0.0,2022-03-04 10:44:55.095,2
43,922,-0.82,2.31,1.08,0.0,2022-03-04 10:44:55.194,2
44,942,-0.84,2.36,-0.95,0.0,2022-03-04 10:44:55.294,2
45,962,-0.82,2.32,-0.95,0.0,2022-03-04 10:44:55.393,2
46,982,-1.1,2.43,0.87,0.0,2022-03-04 10:44:55.492,2
47,1004,-0.75,2.59,-0.85,0.0,2022-03-04 10:44:55.591,2
48,1024,-0.66,2.54,-0.96,0.0,2022-03-04 10:44:55.690,2
49,1044,-0.99,2.62,-1.18,0.0,2022-03-04 10:44:55.790,2
50,1064,-0.84,2.76,-1.36,0.0,2022-03-04 10:44:55.889,2
51,1084,-0.93,2.77,-1.02,0.0,2022-03-04 10:44:55.988,2
52,1106,-0.84,2.7,-1.25,0.0,2022-03-04 10:44:56.098,2
53,1130,-1.04,2.68,-1.18,10.4,2022-03-04 10:44:56.198,2
54,1150,-0.66,2.76,-1.19,10.4,2022-03-04 10:44:56.296,2
55,1170,-0.86,2.68,-1.01,10.4,2022-03-04 10:44:56.395,2
56,1190,0.48,2.55,1.15,10.4,2022-03-04 10:44:56.494,2
57,1212,-0.82,1.58,-0.9,10.4,2022-03-04 10:44:56.594,2
58,1232,-0.51,0.69,-0.82,10.4,2022-03-04 10:44:56.693,2
59,1252,-0.45,1.56,-0.48,10.4,2022-03-04 10:44:56.793,2
60,1272,-0.5,1.65,-0.6,10.4,2022-03-04 10:44:56.892,2
61,1292,0.35,1.31,-0.52,10.4,2022-03-04 10:44:56.992,2
62,1312,0.4,0.98,0.78,10.4,2022-03-04 10:44:57.090,2
63,1336,-0.48,1.68,-0.44,15.8,2022-03-04 10:44:57.190,2
64,1356,-0.59,2.2,0.58,15.8,2022-03-04 10:44:57.289,2
65,1378,-0.38,1.78,0.82,15.8,2022-03-04 10:44:57.399,2
66,1398,-0.38,1.32,-1.08,15.8,2022-03-04 10:44:57.499,2
67,1420,-0.29,1.52,0.56,15.8,2022-03-04 10:44:57.597,2
68,1440,-0.45,1.6,-0.57,15.8,2022-03-04 10:44:57.696,2
69,1460,0.43,1.16,-0.66,15.8,2022-03-04 10:44:57.795,2
70,1480,-0.57,1.03,-0.42,15.8,2022-03-04 10:44:57.895,2
71,1500,0.67,1.24,0.39,15.8,2022-03-04 10:44:57.995,2
72,1520,-0.8,1.22,0.65,15.8,2022-03-04 10:44:58.093,2
73,1544,0.86,1.03,-0.99,21.2,2022-03-04 10:44:58.197,2
74,1564,-0.74,0.99,-0.65,21.2,2022-03-04 10:44:58.291,2
75,1584,-0.87,1.2,-0.73,21.2,2022-03-04 10:44:58.391,2
76,1604,-0.9,1.18,-0.74,21.2,2022-03-04 10:44:58.490,2
77,1626,-0.87,1.11,1.47,21.2,2022-03-04 10:44:58.589,2
78,1648,-0.43,0.97,1.06,21.2,2022-03-04 10:44:58.699,2
79,1668,-0.7,0.8,1.14,21.2,2022-03-04 10:44:58.799,2
80,1688,0.6,0.65,1.41,21.2,2022-03-04 10:44:58.899,2
81,1708,-0.68,0.49,-1.26,21.2,2022-03-04 10:44:58.996,2
82,1728,-0.83,-0.93,-2.01,21.2,2022-03-04 10:44:59.095,2
83,1748,0.5,-0.82,-0.8,21.2,2022-03-04 10:44:59.195,2
84,1772,0.8,-0.8,0.9,24.8,2022-03-04 10:44:59.295,2
85,1792,0.87,-0.65,0.52,24.8,2022-03-04 10:44:59.393,2
86,1812,-0.52,-0.6,-0.54,24.8,2022-03-04 10:44:59.492,2
87,1834,0.69,-0.92,0.73,24.8,2022-03-04 10:44:59.591,2
88,1854,-0.53,-0.66,-0.98,24.8,2022-03-04 10:44:59.691,2
89,1874,0.37,-0.78,-1.47,24.8,2022-03-04 10:44:59.790,2
90,1894,0.63,-0.89,0.8,24.8,2022-03-04 10:44:59.890,2
91,1914,0.82,-0.71,1.0,24.8,2022-03-04 10:44:59.989,2
92,1936,-0.64,0.56,-0.58,24.8,2022-03-04 10:45:00.099,2
93,1960,-0.45,0.76,-0.57,25.6,2022-03-04 10:45:00.199,2
94,1980,-0.53,0.81,0.74,25.6,2022-03-04 10:45:00.297,2
95,2000,-0.29,1.31,-0.39,25.6,2022-03-04 10:45:00.397,2
96,2020,0.87,0.77,-0.78,25.6,2022-03-04 10:45:00.495,2
97,2042,-0.88,1.14,0.41,25.6,2022-03-04 10:45:00.594,2
98,2062,-0.37,0.98,0.6,25.6,2022-03-04 10:45:00.693,2
99,2082,-0.72,0.72,-0.83,25.6,2022-03-04 10:45:00.792,2
100,2102,-0.98,0.96,-0.76,25.6,2022-03-04 10:45:00.892,2
101,2122,0.46,0.74,1.59,25.6,2022-03-04 10:45:00.991,2
102,2142,0.84,0.88,1.35,25.6,2022-03-04 10:45:01.091,2
103,2166,-0.49,0.85,-1.21,29.5,2022-03-04 10:45:01.189,2
104,2186,-0.64,1.0,-1.31,29.5,2022-03-04 10:45:01.289,2
105,2208,-0.64,0.9,0.73,29.5,2022-03-04 10:45:01.399,2
106,2226,-0.26,0.51,0.92,29.5,2022-03-04 10:45:01.487,2
107,2250,0.38,0.87,-1.0,29.5,2022-03-04 10:45:01.598,2
108,2270,-0.93,0.87,-1.68,29.5,2022-03-04 10:45:01.698,2
109,2290,-0.51,0.42,1.16,29.5,2022-03-04 10:45:01.798,2
110,2310,0.45,0.6,1.42,29.5,2022-03-04 10:45:01.896,2
111,2330,0.71,0.44,-1.63,29.5,2022-03-04 10:45:01.994,2
112,2350,-1.29,0.75,-1.65,29.5,2022-03-04 10:45:02.094,2
113,2374,0.83,0.56,2.3,33.1,2022-03-04 10:45:02.192,2
114,2394,0.55,0.88,-1.28,33.1,2022-03-04 10:45:02.292,2
115,2414,-0.67,0.86,-1.36,33.1,2022-03-04 10:45:02.391,2
116,2434,-0.34,1.22,0.92,33.1,2022-03-04 10:45:02.490,2
117,2456,0.61,0.9,1.27,33.1,2022-03-04 10:45:02.589,2
118,2478,-0.89,0.9,-1.45,33.1,2022-03-04 10:45:02.699,2
119,2496,-0.84,0.7,1.18,33.1,2022-03-04 10:45:02.788,2
120,2518,0.59,1.01,-0.88,33.1,2022-03-04 10:45:02.897,2
121,2538,0.93,1.15,-1.63,33.1,2022-03-04 10:45:02.997,2
122,2556,-1.05,0.97,0.99,33.1,2022-03-04 10:45:03.086,2
123,2582,-1.12,1.14,-1.61,36.7,2022-03-04 10:45:03.198,2
124,2602,-0.73,1.12,-1.47,36.7,2022-03-04 10:45:03.295,2
125,2622,-0.97,1.0,-1.55,36.7,2022-03-04 10:45:03.396,2
126,2642,-1.08,0.97,-0.89,36.7,2022-03-04 10:45:03.493,2
127,2664,-0.69,0.41,-0.83,36.7,2022-03-04 10:45:03.591,2
128,2684,-0.92,0.71,1.06,36.7,2022-03-04 10:45:03.691,2
129,2704,0.54,-0.95,1.03,36.7,2022-03-04 10:45:03.791,2
130,2724,-0.66,-0.92,-0.9,36.7,2022-03-04 10:45:03.890,2
131,2744,-0.57,-0.93,1.06,36.7,2022-03-04 10:45:03.989,2
132,2764,-0.56,-0.98,-0.93,36.7,2022-03-04 10:45:04.088,2
133,2790,-0.66,-1.07,-0.65,39.2,2022-03-04 10:45:04.198,2
134,2810,0.6,-0.88,0.67,39.2,2022-03-04 10:45:04.299,2
135,2830,-0.58,-0.94,-0.66,39.2,2022-03-04 10:45:04.397,2
136,2850,0.48,-0.89,-0.72,39.2,2022-03-04 10:45:04.495,2
137,2872,-0.55,-0.73,-0.92,39.2,2022-03-04 10:45:04.595,2
138,2892,-0.73,-0.58,0.4,39.2,2022-03-04 10:45:04.695,2
139,2912,-0.55,-1.12,-1.07,39.2,2022-03-04 10:45:04.794,2
140,2932,-0.58,-1.14,-0.54,39.2,2022-03-04 10:45:04.895,2
141,2952,-0.63,1.29,-0.65,39.2,2022-03-04 10:45:04.991,2
142,2972,-1.0,-0.83,-0.62,39.2,2022-03-04 10:45:05.091,2
143,2996,-0.99,-0.36,-0.89,40.3,2022-03-04 10:45:05.190,2
144,3016,-0.88,-0.66,1.24,40.3,2022-03-04 10:45:05.289,2
145,3038,-0.91,0.33,-1.08,40.3,2022-03-04 10:45:05.399,2
146,3058,-0.7,0.5,1.09,40.3,2022-03-04 10:45:05.499,2
147,3080,0.71,0.87,1.26,40.3,2022-03-04 10:45:05.598,2
148,3100,-1.01,0.72,1.76,40.3,2022-03-04 10:45:05.697,2
149,3120,-1.12,0.44,-1.75,40.3,2022-03-04 10:45:05.795,2
150,3140,-0.81,0.91,-1.95,40.3,2022-03-04 10:45:05.897,2
151,3160,-0.94,0.83,1.59,40.3,2022-03-04 10:45:05.995,2
152,3180,-1.52,1.06,2.32,40.3,2022-03-04 10:45:06.099,2
153,3204,1.26,0.62,-0.92,43.6,2022-03-04 10:45:06.193,2
154,3224,-0.95,0.39,1.51,43.6,2022-03-04 10:45:06.294,2
155,3244,-0.77,0.43,1.51,43.6,2022-03-04 10:45:06.394,2
156,3264,0.75,-0.36,-1.4,43.6,2022-03-04 10:45:06.490,2
157,3286,-0.62,-0.55,-0.84,43.6,2022-03-04 10:45:06.590,2
158,3308,0.45,-0.47,-0.86,43.6,2022-03-04 10:45:06.698,2
159,3328,0.45,-0.46,-0.59,43.6,2022-03-04 10:45:06.799,2
160,3348,1.13,-0.7,-0.72,43.6,2022-03-04 10:45:06.897,2
161,3368,0.86,-0.4,-0.53,43.6,2022-03-04 10:45:06.999,2
162,3388,0.55,-0.52,-1.12,43.6,2022-03-04 10:45:07.096,2
163,3412,0.89,-0.62,-0.71,46.1,2022-03-04 10:45:07.195,2
164,3432,0.53,-0.48,0.67,46.1,2022-03-04 10:45:07.294,2
165,3452,1.32,-0.83,1.21,46.1,2022-03-04 10:45:07.395,2
166,3472,1.29,-0.86,-1.18,46.1,2022-03-04 10:45:07.495,2
167,3494,1.21,-1.15,-1.75,46.1,2022-03-04 10:45:07.593,2
168,3514,1.17,-1.13,-1.47,46.1,2022-03-04 10:45:07.692,2
169,3534,0.86,-1.0,-0.62,46.1,2022-03-04 10:45:07.793,2
170,3554,0.91,-1.07,-0.62,46.1,2022-03-04 10:45:07.890,2
171,3576,0.79,-0.94,-0.91,46.1,2022-03-04 10:45:07.999,2
172,3594,0.69,-0.9,-0.61,46.1,2022-03-04 10:45:08.088,2
173,3620,0.48,-0.92,-1.2,46.4,2022-03-04 10:45:08.197,2
174,3640,0.56,-0.87,-0.73,46.4,2022-03-04 10:45:08.297,2
175,3660,1.26,-1.1,-1.31,46.4,2022-03-04 10:45:08.396,2
176,3680,-1.89,-1.28,1.34,46.4,2022-03-04 10:45:08.497,2
177,3702,1.5,-1.35,-1.51,46.4,2022-03-04 10:45:08.595,2
178,3722,2.75,-0.83,2.0,46.4,2022-03-04 10:45:08.695,2
179,3742,1.09,-0.62,-0.71,46.4,2022-03-04 10:45:08.794,10
180,3762,1.18,-0.78,-0.64,46.4,2022-03-04 10:45:08.893,10
181,3782,0.35,-0.44,-1.1,46.4,2022-03-04 10:45:08.993,10
182,3802,0.82,-0.41,-0.9,46.4,2022-03-04 10:45:09.097,10
183,3826,1.38,-0.48,0.58,46.8,2022-03-04 10:45:09.191,10
184,3846,-1.21,-0.34,-0.85,46.8,2022-03-04 10:45:09.290,10
185,3868,-0.61,-0.55,-0.97,46.8,2022-03-04 10:45:09.399,10
186,3886,-0.52,-0.29,-0.73,46.8,2022-03-04 10:45:09.489,10
187,3910,-1.52,-0.47,-0.63,46.8,2022-03-04 10:45:09.597,10
188,3930,-0.8,-0.48,-1.28,46.8,2022-03-04 10:45:09.696,10
189,3950,-0.96,-0.44,-0.93,46.8,2022-03-04 10:45:09.796,10
190,3970,-0.51,-0.72,0.58,46.8,2022-03-04 10:45:09.898,10
191,3990,-0.75,-0.46,-0.57,46.8,2022-03-04 10:45:09.995,10
192,4010,-0.5,-0.47,0.79,46.8,2022-03-04 10:45:10.094,10
193,4034,-0.96,-0.35,-0.59,48.2,2022-03-04 10:45:10.194,10
194,4054,-0.54,-0.56,0.74,48.2,2022-03-04 10:45:10.293,10
195,4074,-0.52,-0.5,-0.84,48.2,2022-03-04 10:45:10.392,10
196,4094,0.74,-0.56,0.85,48.2,2022-03-04 10:45:10.492,10
197,4116,-0.76,-0.44,-1.57,48.2,2022-03-04 10:45:10.590,10
198,4138,0.96,-0.54,-1.44,48.2,2022-03-04 10:45:10.699,10
199,4158,-0.69,-0.45,-1.28,48.2,2022-03-04 10:45:10.798,10
200,4178,0.93,-0.7,-0.76,48.2,2022-03-04 10:45:10.898,10
201,4198,0.68,-0.65,-0.93,48.2,2022-03-04 10:45:10.997,10
202,4218,0.68,-0.59,1.01,48.2,2022-03-04 10:45:11.096,10
203,4242,-0.65,-0.61,0.82,49.3,2022-03-04 10:45:11.195,10
204,4262,0.79,-0.65,-0.91,49.3,2022-03-04 10:45:11.295,10
205,4282,0.63,-0.73,-1.31,49.3,2022-03-04 10:45:11.399,10
206,4302,0.88,-0.52,-0.92,49.3,2022-03-04 10:45:11.494,10
207,4324,0.83,-0.56,-0.91,49.3,2022-03-04 10:45:11.594,10
208,4344,-0.57,-0.73,-0.66,49.3,2022-03-04 10:45:11.692,10
209,4364,-0.81,-0.76,-1.09,49.3,2022-03-04 10:45:11.793,10
210,4384,-0.55,-0.82,0.91,49.3,2022-03-04 10:45:11.890,10
211,4406,0.7,-0.76,-1.0,49.3,2022-03-04 10:45:11.999,10
212,4424,0.56,-0.79,-0.93,49.3,2022-03-04 10:45:12.091,10
213,4450,-0.8,-0.7,-0.63,49.3,2022-03-04 10:45:12.198,10
214,4468,0.6,-0.76,-1.11,49.3,2022-03-04 10:45:12.288,10
215,4490,0.36,-0.66,-0.56,49.3,2022-03-04 10:45:12.397,10
216,4510,1.06,-0.96,-0.51,49.3,2022-03-04 10:45:12.496,10
217,4532,-0.54,-0.75,-0.94,49.3,2022-03-04 10:45:12.595,10
218,4552,-0.35,-0.8,-0.53,49.3,2022-03-04 10:45:12.694,10
219,4572,0.3,-0.89,0.63,49.3,2022-03-04 10:45:12.794,10
220,4592,0.86,-0.73,-1.0,49.3,2022-03-04 10:45:12.893,10
221,4612,0.6,-0.87,-0.85,49.3,2022-03-04 10:45:12.993,10
222,4632,-0.62,-0.85,-0.94,49.3,2022-03-04 10:45:13.093,10
223,4656,-0.75,-1.29,0.97,49.3,2022-03-04 10:45:13.191,5
224,4676,1.15,-1.29,-1.08,49.0,2022-03-04 10:45:13.290,5
225,4698,0.83,-1.17,-0.63,49.0,2022-03-04 10:45:13.399,5
226,4718,0.89,-1.04,-0.57,49.0,2022-03-04 10:45:13.499,5
227,4740,0.34,-1.09,-0.97,49.0,2022-03-04 10:45:13.597,5
228,4760,0.62,-1.17,-0.65,49.0,2022-03-04 10:45:13.697,5
229,4780,0.37,-1.39,0.76,49.0,2022-03-04 10:45:13.796,5
230,4800,0.66,-1.23,-0.55,49.0,2022-03-04 10:45:13.896,5
231,4820,0.78,-1.61,-0.51,49.0,2022-03-04 10:45:13.995,5
232,4840,1.02,-1.39,-0.75,49.0,2022-03-04 10:45:14.094,5
233,4864,0.54,-1.44,0.46,49.0,2022-03-04 10:45:14.193,5
234,4884,0.6,-1.53,0.72,47.2,2022-03-04 10:45:14.292,5
235,4904,1.02,-1.32,-0.88,47.2,2022-03-04 10:45:14.392,5
236,4924,0.51,-1.34,-0.89,47.2,2022-03-04 10:45:14.491,5
237,4946,0.73,-1.6,-0.86,47.2,2022-03-04 10:45:14.590,5
238,4966,0.7,-1.6,0.73,47.2,2022-03-04 10:45:14.690,5
239,4988,0.69,-1.59,-0.76,47.2,2022-03-04 10:45:14.799,5
240,5008,0.83,-1.5,-0.68,47.2,2022-03-04 10:45:14.899,5
241,5028,0.95,-1.6,0.58,47.2,2022-03-04 10:45:14.997,5
242,5048,0.91,-1.54,0.53,47.2,2022-03-04 10:45:15.097,5
243,5072,0.77,-1.65,0.75,47.2,2022-03-04 10:45:15.195,5
244,5092,0.53,-1.74,-0.67,43.9,2022-03-04 10:45:15.295,5
245,5112,0.92,-1.64,-0.95,43.9,2022-03-04 10:45:15.394,5
246,5132,0.66,-1.47,0.5,43.9,2022-03-04 10:45:15.495,5
247,5154,0.69,-1.63,-0.83,43.9,2022-03-04 10:45:15.593,5
248,5174,0.94,-1.61,-0.57,43.9,2022-03-04 10:45:15.692,5
249,5194,-0.87,-1.64,0.83,43.9,2022-03-04 10:45:15.792,5
250,5214,0.37,-1.76,-0.61,43.9,2022-03-04 10:45:15.892,5
251,5234,0.74,-1.69,-0.51,43.9,2022-03-04 10:45:15.990,5
252,5254,0.47,-1.56,0.72,43.9,2022-03-04 10:45:16.090,5
253,5280,0.65,-1.82,-0.54,43.9,2022-03-04 10:45:16.198,5
254,5300,1.01,-1.74,-0.55,40.0,2022-03-04 10:45:16.297,5
255,5320,0.91,-1.71,0.51,40.0,2022-03-04 10:45:16.397,5
256,5340,0.39,-1.75,-0.68,40.0,2022-03-04 10:45:16.498,5
257,5362,0.77,-1.6,-0.4,40.0,2022-03-04 10:45:16.595,5
258,5382,0.78,-1.52,-0.69,40.0,2022-03-04 10:45:16.695,5
259,5402,1.23,-1.73,-0.73,40.0,2022-03-04 10:45:16.794,5
260,5422,0.75,-1.77,-0.66,40.0,2022-03-04 10:45:16.893,5
261,5442,0.95,-1.67,-0.73,40.0,2022-03-04 10:45:16.993,5
262,5462,0.53,-1.58,-0.56,40.0,2022-03-04 10:45:17.092,5
263,5486,0.74,-1.53,-0.57,40.0,2022-03-04 10:45:17.191,5
264,5506,0.47,-1.47,-1.19,34.9,2022-03-04 10:45:17.290,5
265,5526,0.66,-1.39,-0.52,34.9,2022-03-04 10:45:17.390,5
266,5548,1.01,-1.24,-0.62,34.9,2022-03-04 10:45:17.498,5
267,5570,0.77,-1.13,-0.69,34.9,2022-03-04 10:45:17.598,5
268,5590,0.75,-1.16,-0.5,34.9,2022-03-04 10:45:17.697,5
269,5610,1.18,-1.14,-0.51,34.9,2022-03-04 10:45:17.797,5
270,5630,0.99,-0.92,-0.76,34.9,2022-03-04 10:45:17.895,5
271,5650,1.09,-0.83,-0.49,34.9,2022-03-04 10:45:17.996,5
272,5668,0.99,-0.73,-0.52,34.9,2022-03-04 10:45:18.085,5
273,5694,1.03,-0.56,0.46,34.9,2022-03-04 10:45:18.194,5
274,5714,0.92,-0.36,0.53,30.2,2022-03-04 10:45:18.295,5
275,5734,0.98,-0.41,-0.44,30.2,2022-03-04 10:45:18.392,5
276,5754,1.19,-0.22,0.49,30.2,2022-03-04 10:45:18.491,5
277,5776,1.18,-0.32,0.6,30.2,2022-03-04 10:45:18.592,5
278,5796,0.62,-0.24,-0.36,30.2,2022-03-04 10:45:18.690,5
279,5818,0.97,-0.25,0.4,30.2,2022-03-04 10:45:18.799,5
280,5838,0.87,-0.37,-0.52,30.2,2022-03-04 10:45:18.898,5
281,5858,0.68,-0.23,-0.44,30.2,2022-03-04 10:45:18.997,5
282,5878,0.72,-0.24,-0.39,30.2,2022-03-04 10:45:19.097,5
283,5900,0.64,-0.36,-0.39,30.2,2022-03-04 10:45:19.198,5
284,5922,0.92,-0.23,0.81,27.7,2022-03-04 10:45:19.295,5
285,5942,0.86,-0.23,-0.51,27.7,2022-03-04 10:45:19.394,5
286,5962,0.55,-0.23,-0.8,27.7,2022-03-04 10:45:19.494,8
287,5984,0.62,0.21,-0.63,27.7,2022-03-04 10:45:19.593,8
288,6004,0.88,0.36,-0.38,27.7,2022-03-04 10:45:19.693,8
289,6024,0.81,0.39,-0.79,27.7,2022-03-04 10:45:19.792,8
290,6044,0.62,0.32,-0.26,27.7,2022-03-04 10:45:19.891,8
291,6064,-0.44,0.41,-0.7,27.7,2022-03-04 10:45:19.990,8
292,6084,-0.46,0.34,-0.88,27.7,2022-03-04 10:45:20.090,8
293,6108,-0.54,0.35,0.66,27.7,2022-03-04 10:45:20.189,8
294,6130,-0.46,0.33,-0.66,25.2,2022-03-04 10:45:20.297,8
295,6150,-0.86,0.31,-0.95,25.2,2022-03-04 10:45:20.397,8
296,6170,-0.76,0.34,-0.5,25.2,2022-03-04 10:45:20.497,8
297,6192,-1.32,0.33,0.35,25.2,2022-03-04 10:45:20.595,8
298,6212,-2.03,0.26,0.54,25.2,2022-03-04 10:45:20.695,8
299,6232,-1.48,0.27,-0.46,25.2,2022-03-04 10:45:20.794,8
300,6252,-1.83,0.22,-0.55,25.2,2022-03-04 10:45:20.894,8
301,6272,-2.0,-0.29,0.35,25.2,2022-03-04 10:45:20.996,8
302,6292,-2.79,-0.33,0.47,25.2,2022-03-04 10:45:21.093,8
303,6316,-3.27,-0.53,0.62,25.2,2022-03-04 10:45:21.192,8
304,6336,-2.82,-0.56,0.65,22.7,2022-03-04 10:45:21.291,8
305,6356,-2.93,-0.63,0.52,22.7,2022-03-04 10:45:21.390,8
306,6376,-2.96,-0.89,-0.55,22.7,2022-03-04 10:45:21.489,8
307,6400,-3.82,-0.86,0.58,22.7,2022-03-04 10:45:21.599,8
308,6418,-3.58,-0.85,0.57,22.7,2022-03-04 10:45:21.689,8
309,6440,-4.15,-0.99,0.46,22.7,2022-03-04 10:45:21.797,8
310,6460,-3.68,-0.94,-0.37,22.7,2022-03-04 10:45:21.896,8
311,6480,-3.64,-0.96,-0.75,22.7,2022-03-04 10:45:21.995,8
312,6498,-3.44,-0.84,-0.86,22.7,2022-03-04 10:45:22.085,8
313,6524,-3.43,-0.69,0.87,23.0,2022-03-04 10:45:22.194,8
314,6544,-3.1,-0.51,0.5,23.0,2022-03-04 10:45:22.293,8
315,6564,-3.35,-0.54,-0.53,23.0,2022-03-04 10:45:22.393,8
316,6584,-3.05,-0.64,-0.35,23.0,2022-03-04 10:45:22.492,8
317,6606,-3.66,-0.75,0.28,23.0,2022-03-04 10:45:22.593,8
318,6626,-3.69,-0.85,0.42,23.0,2022-03-04 10:45:22.690,8
319,6646,-3.31,-0.71,-0.44,23.0,2022-03-04 10:45:22.790,8
320,6668,-3.47,-0.62,-0.28,23.0,2022-03-04 10:45:22.899,8
321,6686,-3.04,-0.69,-0.34,23.0,2022-03-04 10:45:22.988,8
322,6708,-3.04,-0.71,0.49,23.0,2022-03-04 10:45:23.099,8
323,6732,-2.8,-0.79,0.51,23.0,2022-03-04 10:45:23.196,8
324,6752,-2.47,-0.68,0.77,20.5,2022-03-04 10:45:23.296,8
325,6772,-2.69,-0.74,0.42,20.5,2022-03-04 10:45:23.396,8
326,6792,-2.77,-0.86,-0.37,20.5,2022-03-04 10:45:23.494,8
327,6814,-2.53,-0.69,0.55,20.5,2022-03-04 10:45:23.595,8
328,6834,-2.27,-0.75,0.56,20.5,2022-03-04 10:45:23.692,8
329,6854,-2.45,-0.86,-0.47,20.5,2022-03-04 10:45:23.792,8
330,6874,-2.51,-0.94,0.43,20.5,2022-03-04 10:45:23.891,8
331,6894,-2.44,-1.0,-0.79,20.5,2022-03-04 10:45:23.991,8
332,6914,-2.41,-0.99,0.8,20.5,2022-03-04 10:45:24.091,8
333,6940,-2.51,-1.17,0.89,20.5,2022-03-04 10:45:24.199,8
334,6958,-2.51,-1.25,0.64,19.1,2022-03-04 10:45:24.288,8
335,6980,-2.23,-0.86,-0.52,19.1,2022-03-04 10:45:24.398,8
336,7000,-2.55,-0.7,-0.71,19.1,2022-03-04 10:45:24.499,8
337,7022,-2.56,-0.99,-0.68,19.1,2022-03-04 10:45:24.597,8
338,7042,-3.06,-0.97,-0.55,19.1,2022-03-04 10:45:24.695,8
339,7062,-3.16,-1.22,0.67,19.1,2022-03-04 10:45:24.795,8
340,7082,-3.19,-1.32,-0.66,19.1,2022-03-04 10:45:24.894,8
341,7102,-3.06,-1.73,-0.66,19.1,2022-03-04 10:45:24.993,8
342,7120,-2.98,-1.95,0.65,19.1,2022-03-04 10:45:25.084,8
343,7146,-2.94,-1.68,0.33,19.1,2022-03-04 10:45:25.192,8
344,7166,-3.17,-2.1,-0.68,16.9,2022-03-04 10:45:25.292,8
345,7186,-3.14,-1.77,-1.02,16.9,2022-03-04 10:45:25.390,8
346,7206,-3.21,-1.96,-0.56,16.9,2022-03-04 10:45:25.489,8
347,7230,-3.5,-2.08,0.46,16.9,2022-03-04 10:45:25.599,8
348,7248,-3.82,-2.12,0.8,16.9,2022-03-04 10:45:25.688,8
349,7270,-3.62,-2.31,0.85,16.9,2022-03-04 10:45:25.799,8
350,7290,-3.43,-2.2,0.63,16.9,2022-03-04 10:45:25.896,8
351,7310,-3.43,-2.14,0.83,16.9,2022-03-04 10:45:25.997,8
352,7328,-3.65,-2.32,-0.71,16.9,2022-03-04 10:45:26.086,8
353,7354,-4.09,-2.24,0.98,18.4,2022-03-04 10:45:26.194,8
354,7374,-3.69,-2.2,-0.78,18.4,2022-03-04 10:45:26.294,8
355,7394,-4.22,-2.13,-1.3,18.4,2022-03-04 10:45:26.393,8
356,7414,-3.82,-2.07,-0.87,18.4,2022-03-04 10:45:26.492,8
357,7436,-4.92,-2.13,0.77,18.4,2022-03-04 10:45:26.591,8
358,7456,-4.21,-2.02,-0.92,18.4,2022-03-04 10:45:26.692,8
359,7476,-3.83,-1.95,0.88,18.4,2022-03-04 10:45:26.790,8
360,7498,-4.34,-1.8,0.68,18.4,2022-03-04 10:45:26.899,8
361,7518,-3.81,-1.57,1.26,18.4,2022-03-04 10:45:26.998,8
362,7538,-3.73,-1.57,1.73,18.4,2022-03-04 10:45:27.099,8
363,7562,-3.43,-1.69,-0.9,19.4,2022-03-04 10:45:27.197,8
364,7582,-2.88,-1.8,1.28,19.4,2022-03-04 10:45:27.296,8
365,7602,-2.45,-1.48,1.19,19.4,2022-03-04 10:45:27.396,8
366,7622,-1.72,-1.23,1.5,19.4,2022-03-04 10:45:27.496,8
367,7644,-1.66,-0.86,1.03,19.4,2022-03-04 10:45:27.596,8
368,7664,-1.48,-1.27,-0.47,19.4,2022-03-04 10:45:27.693,8
369,7684,-0.79,-0.85,0.99,19.4,2022-03-04 10:45:27.793,8
370,7704,-0.74,-1.06,-0.89,19.4,2022-03-04 10:45:27.892,8
371,7724,-1.0,-0.92,-0.7,19.4,2022-03-04 10:45:27.991,2
372,7744,-0.68,-1.01,0.56,19.4,2022-03-04 10:45:28.090,2
373,7764,-0.64,-0.74,0.79,19.4,2022-03-04 10:45:28.191,2
374,7790,0.57,-1.03,-0.44,19.4,2022-03-04 10:45:28.299,2
375,7810,0.75,-0.8,-0.62,18.7,2022-03-04 10:45:28.399,2
376,7830,0.95,-0.74,-0.65,18.7,2022-03-04 10:45:28.499,2
377,7852,0.91,-0.79,0.38,18.7,2022-03-04 10:45:28.599,2
378,7872,0.77,-0.94,0.86,18.7,2022-03-04 10:45:28.696,2
379,7892,1.02,-0.95,-0.71,18.7,2022-03-04 10:45:28.796,2
380,7912,0.57,-0.56,-0.67,18.7,2022-03-04 10:45:28.896,2
381,7932,0.68,-0.74,-0.87,18.7,2022-03-04 10:45:28.998,2
382,7952,1.01,-0.79,0.73,18.7,2022-03-04 10:45:29.096,2
383,7976,1.03,-0.67,0.46,20.9,2022-03-04 10:45:29.192,2
384,7996,1.07,-0.61,-0.81,20.9,2022-03-04 10:45:29.291,2
385,8016,1.49,-0.59,-0.78,20.9,2022-03-04 10:45:29.390,2
386,8036,1.3,-0.68,-0.91,20.9,2022-03-04 10:45:29.490,2
387,8060,1.14,-0.66,-0.83,20.9,2022-03-04 10:45:29.599,2
388,8080,1.3,-0.67,0.63,20.9,2022-03-04 10:45:29.699,2
389,8100,1.66,-0.64,-0.99,20.9,2022-03-04 10:45:29.798,2
390,8120,2.01,-0.62,-1.0,20.9,2022-03-04 10:45:29.897,2
391,8140,1.81,-0.5,0.7,20.9,2022-03-04 10:45:29.998,2
392,8158,1.24,-0.55,-0.9,20.9,2022-03-04 10:45:30.086,2
393,8184,1.82,-1.22,-1.99,23.4,2022-03-04 10:45:30.196,2
394,8204,1.91,-0.82,-1.56,23.4,2022-03-04 10:45:30.295,2
395,8224,1.71,-0.42,0.85,23.4,2022-03-04 10:45:30.394,2
396,8244,1.78,-0.38,-0.55,23.4,2022-03-04 10:45:30.495,2
397,8266,1.69,-0.42,0.73,23.4,2022-03-04 10:45:30.591,2
398,8286,1.03,-0.58,0.91,23.4,2022-03-04 10:45:30.691,2
399,8306,1.01,-0.38,-0.92,23.4,2022-03-04 10:45:30.790,2
400,8328,1.29,-0.56,1.07,23.4,2022-03-04 10:45:30.899,2
401,8346,1.01,-0.37,-0.93,23.4,2022-03-04 10:45:30.988,2
402,8368,1.95,-0.43,0.92,23.4,2022-03-04 10:45:31.098,2
403,8392,1.2,-0.36,1.13,26.3,2022-03-04 10:45:31.197,2
404,8412,1.08,-0.39,-0.79,26.3,2022-03-04 10:45:31.297,2
405,8432,1.45,-0.36,-0.82,26.3,2022-03-04 10:45:31.397,2
406,8452,1.02,-0.37,0.9,26.3,2022-03-04 10:45:31.496,2
407,8474,1.0,-0.51,1.33,26.3,2022-03-04 10:45:31.594,2
408,8494,1.05,-0.3,0.64,26.3,2022-03-04 10:45:31.695,2
409,8514,0.88,-0.5,-0.77,26.3,2022-03-04 10:45:31.793,2
410,8534,0.77,-0.31,-1.21,26.3,2022-03-04 10:45:31.892,2
411,8554,1.03,-0.28,-0.67,26.3,2022-03-04 10:45:31.992,2
412,8574,0.71,-0.48,-0.96,26.3,2022-03-04 10:45:32.092,2
413,8600,0.84,-0.29,-1.17,28.4,2022-03-04 10:45:32.199,2
414,8620,1.02,-0.37,-0.78,28.4,2022-03-04 10:45:32.298,2
415,8640,0.53,-0.45,0.71,28.4,2022-03-04 10:45:32.398,2
416,8658,-0.39,-0.37,-0.64,28.4,2022-03-04 10:45:32.488,2
417,8682,-0.77,-0.23,1.03,28.4,2022-03-04 10:45:32.597,2
418,8702,0.55,-0.47,-0.75,28.4,2022-03-04 10:45:32.696,2
419,8722,0.48,-0.46,1.17,28.4,2022-03-04 10:45:32.796,2
420,8742,0.55,-0.5,1.06,28.4,2022-03-04 10:45:32.894,2
421,8762,0.66,-0.35,0.71,28.4,2022-03-04 10:45:32.996,2
422,8782,1.1,-0.46,1.31,28.4,2022-03-04 10:45:33.094,2
423,8806,1.21,-0.33,0.85,31.7,2022-03-04 10:45:33.192,2
424,8826,0.96,-0.31,0.62,31.7,2022-03-04 10:45:33.292,2
425,8846,0.65,-0.27,-1.2,31.7,2022-03-04 10:45:33.392,2
426,8866,1.34,-0.44,0.58,31.7,2022-03-04 10:45:33.491,2
427,8888,1.25,-0.43,-1.24,31.7,2022-03-04 10:45:33.589,2
428,8910,1.25,-0.42,-1.14,31.7,2022-03-04 10:45:33.698,2
429,8930,0.81,-1.09,1.09,31.7,2022-03-04 10:45:33.798,2
430,8950,0.7,-1.56,-0.98,31.7,2022-03-04 10:45:33.897,2
431,8970,0.7,-1.55,0.44,31.7,2022-03-04 10:45:33.996,2
432,8990,-0.88,-1.33,-0.55,31.7,2022-03-04 10:45:34.099,2
433,9014,0.84,-1.32,1.67,34.2,2022-03-04 10:45:34.197,2
434,9034,0.66,-1.23,0.67,34.2,2022-03-04 10:45:34.294,2
435,9054,0.55,-1.32,-0.27,34.2,2022-03-04 10:45:34.395,2
436,9074,-0.76,-1.11,0.88,34.2,2022-03-04 10:45:34.493,2
437,9096,-1.01,-1.04,-1.08,34.2,2022-03-04 10:45:34.593,2
438,9116,-0.53,-0.63,-0.8,34.2,2022-03-04 10:45:34.692,2
439,9136,-0.65,-0.54,0.78,34.2,2022-03-04 10:45:34.791,2
440,9156,-1.19,0.3,1.07,34.2,2022-03-04 10:45:34.890,2
441,9178,0.54,0.41,-1.14,34.2,2022-03-04 10:45:34.999,2
442,9198,-0.82,0.81,-0.78,34.2,2022-03-04 10:45:35.098,2
443,9220,0.95,-0.93,-1.04,35.6,2022-03-04 10:45:35.199,2
444,9242,0.57,0.45,1.44,35.6,2022-03-04 10:45:35.296,2
445,9262,0.88,-0.73,-0.56,35.6,2022-03-04 10:45:35.396,2
446,9282,-0.53,0.6,-0.96,35.6,2022-03-04 10:45:35.495,2
447,9304,-0.71,-0.47,-0.49,35.6,2022-03-04 10:45:35.594,2
448,9324,1.11,-0.53,0.96,35.6,2022-03-04 10:45:35.695,2
449,9344,0.91,-0.29,-0.6,35.6,2022-03-04 10:45:35.792,2
450,9364,0.39,-0.53,-0.56,35.6,2022-03-04 10:45:35.893,2
451,9384,1.21,-0.65,0.71,35.6,2022-03-04 10:45:35.993,2
452,9404,0.75,-0.43,-1.19,35.6,2022-03-04 10:45:36.091,2
453,9428,0.67,-0.42,-1.14,38.2,2022-03-04 10:45:36.190,2
454,9450,1.09,-0.44,1.11,38.2,2022-03-04 10:45:36.299,2
455,9470,-0.66,-0.31,-1.18,38.2,2022-03-04 10:45:36.398,2
456,9490,0.9,-0.41,0.96,38.2,2022-03-04 10:45:36.499,2
457,9512,-1.01,-0.72,-1.01,38.2,2022-03-04 10:45:36.597,2
458,9532,1.1,-0.48,0.69,38.2,2022-03-04 10:45:36.697,2
459,9552,-0.97,-0.34,-0.98,38.2,2022-03-04 10:45:36.795,2
460,9572,-0.75,-0.43,1.14,38.2,2022-03-04 10:45:36.895,2
461,9592,-0.69,-0.33,0.92,38.2,2022-03-04 10:45:36.995,2
462,9612,-1.56,-0.5,-0.8,38.2,2022-03-04 10:45:37.095,2
463,9636,1.18,-0.54,-0.82,40.7,2022-03-04 10:45:37.192,2
464,9656,-1.1,-0.4,-1.19,40.7,2022-03-04 10:45:37.294,2
465,9676,-1.35,-0.56,-0.9,40.7,2022-03-04 10:45:37.392,2
466,9696,1.4,-0.53,1.25,40.7,2022-03-04 10:45:37.490,2
467,9718,-0.73,-0.59,-1.2,40.7,2022-03-04 10:45:37.592,2
468,9740,0.67,-0.59,1.03,40.7,2022-03-04 10:45:37.699,2
469,9760,-1.04,0.38,-1.42,40.7,2022-03-04 10:45:37.798,2
470,9780,-0.98,-0.52,-1.45,40.7,2022-03-04 10:45:37.897,2
471,9800,-1.06,0.51,-1.12,40.7,2022-03-04 10:45:37.996,2
472,9818,-0.54,0.57,-1.14,40.7,2022-03-04 10:45:38.086,2
473,9844,-0.72,-0.42,1.27,42.5,2022-03-04 10:45:38.195,2
474,9864,-0.76,0.63,1.85,42.5,2022-03-04 10:45:38.294,2
475,9884,0.61,-0.52,-1.69,42.5,2022-03-04 10:45:38.394,2
476,9904,-0.51,0.45,-1.34,42.5,2022-03-04 10:45:38.493,2
477,9926,-0.49,-0.34,1.26,42.5,2022-03-04 10:45:38.593,2
478,9946,1.35,-0.52,1.59,42.5,2022-03-04 10:45:38.694,2
479,9966,0.75,-0.91,-1.13,42.5,2022-03-04 10:45:38.791,2
480,9986,1.43,0.59,1.05,42.5,2022-03-04 10:45:38.890,2
481,10006,1.34,-0.48,-1.4,42.5,2022-03-04 10:45:38.990,2
482,10028,1.02,-0.79,0.73,42.5,2022-03-04 10:45:39.099,2
483,10052,1.03,-0.49,1.41,44.3,2022-03-04 10:45:39.199,2
484,10072,0.79,-0.82,-1.15,44.3,2022-03-04 10:45:39.297,2
485,10092,0.65,-0.88,0.9,44.3,2022-03-04 10:45:39.396,10
486,10112,0.45,-0.72,0.88,44.3,2022-03-04 10:45:39.495,10
487,10134,-0.51,-0.68,-0.93,44.3,2022-03-04 10:45:39.595,10
488,10154,0.35,-0.67,-0.67,44.3,2022-03-04 10:45:39.694,10
489,10174,0.54,-0.52,-1.37,44.3,2022-03-04 10:45:39.795,10
490,10194,-0.62,-0.71,-0.79,44.3,2022-03-04 10:45:39.895,10
491,10214,0.79,-0.34,1.16,44.3,2022-03-04 10:45:39.992,10
492,10234,1.15,-0.36,1.11,44.3,2022-03-04 10:45:40.091,10
493,10258,0.88,-0.4,1.18,45.4,2022-03-04 10:45:40.195,10
494,10280,-1.24,-0.42,-1.37,45.4,2022-03-04 10:45:40.299,10
495,10300,0.88,-0.39,0.71,45.4,2022-03-04 10:45:40.399,10
496,10320,-0.73,-0.45,-0.78,45.4,2022-03-04 10:45:40.499,10
497,10342,0.87,-0.72,-0.85,45.4,2022-03-04 10:45:40.597,10
498,10362,0.64,-0.66,-1.13,45.4,2022-03-04 10:45:40.697,10
499,10382,0.53,-0.55,-0.74,45.4,2022-03-04 10:45:40.796,10
500,10402,0.37,-0.44,-0.51,45.4,2022-03-04 10:45:40.895,10
501,10422,-0.49,-0.62,-0.57,45.4,2022-03-04 10:45:40.994,10
502,10442,0.69,-0.53,-0.83,45.4,2022-03-04 10:45:41.094,10
503,10466,-0.99,-0.85,-0.67,46.4,2022-03-04 10:45:41.193,10
504,10486,0.95,-0.55,-1.14,46.4,2022-03-04 10:45:41.292,10
505,10506,-0.98,-0.54,0.74,46.4,2022-03-04 10:45:41.391,10
506,10526,-0.66,-0.67,0.63,46.4,2022-03-04 10:45:41.490,10
507,10548,-0.66,-0.76,-1.11,46.4,2022-03-04 10:45:41.590,10
508,10568,0.84,-0.7,0.99,46.4,2022-03-04 10:45:41.689,10
509,10590,-0.74,-0.58,0.88,46.4,2022-03-04 10:45:41.799,10
510,10610,-0.67,-0.8,-0.97,46.4,2022-03-04 10:45:41.897,10
511,10630,0.36,-0.6,-0.8,46.4,2022-03-04 10:45:41.997,10
512,10650,0.56,-0.66,-0.97,46.4,2022-03-04 10:45:42.096,10
513,10674,0.25,-0.62,-0.49,47.2,2022-03-04 10:45:42.196,10
514,10694,-0.54,-0.61,-1.07,47.2,2022-03-04 10:45:42.295,10
515,10714,0.56,-0.8,-0.74,47.2,2022-03-04 10:45:42.394,10
516,10734,-0.87,-0.72,0.84,47.2,2022-03-04 10:45:42.493,10
517,10756,-0.39,-0.53,0.78,47.2,2022-03-04 10:45:42.592,10
518,10776,-0.74,-0.78,-0.82,47.2,2022-03-04 10:45:42.692,10
519,10796,-0.36,-0.89,-1.02,47.2,2022-03-04 10:45:42.791,5
520,10816,0.63,-0.99,-0.56,47.2,2022-03-04 10:45:42.891,5
521,10836,0.69,-1.11,0.48,47.2,2022-03-04 10:45:42.990,5
522,10856,0.47,-1.13,-0.79,47.2,2022-03-04 10:45:43.089,5
523,10882,0.65,-1.39,-0.73,47.5,2022-03-04 10:45:43.198,5
524,10902,0.67,-1.21,-0.86,47.5,2022-03-04 10:45:43.297,5
525,10922,-0.49,-0.87,1.07,47.5,2022-03-04 10:45:43.396,5
526,10942,0.38,-1.0,-0.58,47.5,2022-03-04 10:45:43.495,5
527,10964,0.72,-1.1,-1.06,47.5,2022-03-04 10:45:43.594,5
528,10984,-0.47,-1.1,-0.57,47.5,2022-03-04 10:45:43.694,5
529,11004,0.81,-1.22,-0.7,47.5,2022-03-04 10:45:43.794,5
530,11024,0.56,-1.32,-0.6,47.5,2022-03-04 10:45:43.892,5
531,11044,0.69,-1.38,0.83,47.5,2022-03-04 10:45:43.992,5
532,11064,0.72,-1.37,-0.67,47.5,2022-03-04 10:45:44.091,5
533,11088,0.72,-1.48,0.66,47.5,2022-03-04 10:45:44.191,5
534,11108,0.8,-1.92,-0.64,46.1,2022-03-04 10:45:44.290,5
535,11130,0.86,-2.25,-0.6,46.1,2022-03-04 10:45:44.399,5
536,11150,0.62,-2.08,-0.71,46.1,2022-03-04 10:45:44.499,5
537,11172,0.64,-2.16,0.3,46.1,2022-03-04 10:45:44.598,5
538,11192,1.03,-2.06,0.54,46.1,2022-03-04 10:45:44.697,5
539,11212,0.89,-2.12,-0.58,46.1,2022-03-04 10:45:44.797,5
540,11232,0.77,-2.25,0.61,46.1,2022-03-04 10:45:44.895,5
541,11252,0.84,-2.04,-0.54,46.1,2022-03-04 10:45:44.996,5
542,11272,-0.77,-2.05,-0.78,46.1,2022-03-04 10:45:45.094,5
543,11296,1.03,-2.08,-0.97,46.1,2022-03-04 10:45:45.194,5
544,11316,1.11,-2.02,0.72,41.8,2022-03-04 10:45:45.292,5
545,11336,0.62,-2.36,0.65,41.8,2022-03-04 10:45:45.392,5
546,11356,0.72,-2.17,-0.62,41.8,2022-03-04 10:45:45.491,5
547,11378,0.61,-2.19,0.4,41.8,2022-03-04 10:45:45.591,5
548,11398,0.76,-1.93,-0.84,41.8,2022-03-04 10:45:45.689,5
549,11418,0.64,-2.07,-0.56,41.8,2022-03-04 10:45:45.788,5
550,11440,0.5,-2.02,-0.68,41.8,2022-03-04 10:45:45.898,5
551,11460,0.77,-2.15,-0.57,41.8,2022-03-04 10:45:45.997,5
552,11478,0.78,-1.88,-0.65,41.8,2022-03-04 10:45:46.093,5
553,11500,0.56,-1.95,-0.64,41.8,2022-03-04 10:45:46.196,5
554,11524,0.69,-1.95,-0.58,36.7,2022-03-04 10:45:46.295,5
555,11544,0.83,-1.98,0.4,36.7,2022-03-04 10:45:46.394,5
556,11564,0.81,-1.72,0.93,36.7,2022-03-04 10:45:46.494,5
557,11586,0.46,-1.31,-0.83,36.7,2022-03-04 10:45:46.592,5
558,11606,0.54,-1.39,-0.64,36.7,2022-03-04 10:45:46.693,5
559,11626,0.78,-1.44,0.43,36.7,2022-03-04 10:45:46.791,5
560,11646,0.52,-1.34,0.69,36.7,2022-03-04 10:45:46.890,5
561,11666,0.44,-1.23,-0.78,36.7,2022-03-04 10:45:46.990,5
562,11688,0.6,-1.28,-0.87,36.7,2022-03-04 10:45:47.099,5
563,11712,0.48,-1.27,-0.91,36.7,2022-03-04 10:45:47.199,5
564,11732,-0.75,-1.19,0.72,32.0,2022-03-04 10:45:47.299,5
565,11752,0.88,-0.8,-0.62,32.0,2022-03-04 10:45:47.396,5
566,11772,-0.57,-0.97,-0.81,32.0,2022-03-04 10:45:47.496,5
567,11794,1.06,-1.3,0.86,32.0,2022-03-04 10:45:47.596,5
568,11814,0.53,-1.63,-0.77,32.0,2022-03-04 10:45:47.694,5
569,11834,0.51,-1.83,-0.86,32.0,2022-03-04 10:45:47.794,5
570,11854,0.43,-1.98,0.88,32.0,2022-03-04 10:45:47.894,5
571,11874,0.69,-1.96,0.43,32.0,2022-03-04 10:45:47.995,5
572,11894,0.43,-1.93,-0.88,32.0,2022-03-04 10:45:48.091,5
573,11918,0.38,-1.93,-0.95,32.0,2022-03-04 10:45:48.191,5
574,11938,0.49,-2.1,0.46,27.7,2022-03-04 10:45:48.290,5
575,11958,0.6,-2.0,-0.59,27.7,2022-03-04 10:45:48.389,5
576,11978,0.49,-2.0,-0.55,27.7,2022-03-04 10:45:48.489,5
577,12002,0.44,-2.17,-0.41,27.7,2022-03-04 10:45:48.599,5
578,12022,0.67,-2.08,0.27,27.7,2022-03-04 10:45:48.699,5
579,12042,0.41,-2.0,0.22,27.7,2022-03-04 10:45:48.798,5
580,12062,0.44,-1.94,-0.6,27.7,2022-03-04 10:45:48.895,5
581,12082,-0.31,-1.91,-1.01,27.7,2022-03-04 10:45:48.995,5
582,12102,0.41,-1.99,-0.39,27.7,2022-03-04 10:45:49.095,5
583,12122,0.33,-1.92,0.28,27.7,2022-03-04 10:45:49.195,5
584,12146,0.42,-2.0,0.37,20.5,2022-03-04 10:45:49.293,5
585,12166,0.43,-2.02,-0.52,20.5,2022-03-04 10:45:49.392,5
586,12186,0.21,-1.95,-0.47,20.5,2022-03-04 10:45:49.492,5
587,12208,0.3,-1.88,-0.44,20.5,2022-03-04 10:45:49.590,5
588,12228,0.4,-1.84,-0.48,20.5,2022-03-04 10:45:49.690,5
589,12248,0.3,-1.75,-0.52,20.5,2022-03-04 10:45:49.789,5
590,12270,0.25,-1.84,-0.17,20.5,2022-03-04 10:45:49.899,5
591,12290,0.41,-1.79,-0.25,20.5,2022-03-04 10:45:49.999,5
592,12310,0.51,-1.74,-0.38,20.5,2022-03-04 10:45:50.098,5
593,12330,0.38,-1.39,0.38,20.5,2022-03-04 10:45:50.199,5
594,12354,-0.16,-1.08,-0.35,20.5,2022-03-04 10:45:50.295,5
595,12374,-0.18,-1.01,-0.27,12.2,2022-03-04 10:45:50.396,5
596,12394,0.25,-0.79,-0.28,12.2,2022-03-04 10:45:50.494,5
597,12416,0.23,-0.68,-0.25,12.2,2022-03-04 10:45:50.595,5
598,12436,0.12,-0.63,-0.35,12.2,2022-03-04 10:45:50.692,5
599,12456,-0.22,-0.57,-0.35,12.2,2022-03-04 10:45:50.792,5
600,12476,-0.13,-0.54,-0.25,12.2,2022-03-04 10:45:50.891,5
601,12496,-0.16,-0.46,-0.34,12.2,2022-03-04 10:45:50.991,5
602,12516,0.09,-0.4,-0.23,12.2,2022-03-04 10:45:51.090,5
603,12542,-0.17,-0.34,-0.23,12.2,2022-03-04 10:45:51.198,5
604,12562,-0.22,0.54,-0.16,6.1,2022-03-04 10:45:51.299,5
605,12582,-0.22,0.81,-0.18,6.1,2022-03-04 10:45:51.398,5
606,12602,-0.2,0.9,-0.29,6.1,2022-03-04 10:45:51.498,5
607,12624,-0.25,0.88,-0.21,6.1,2022-03-04 10:45:51.596,5
608,12644,-0.25,0.86,-0.19,6.1,2022-03-04 10:45:51.696,5
609,12664,-0.26,0.91,-0.21,6.1,2022-03-04 10:45:51.794,5
610,12684,-0.2,0.96,-0.21,6.1,2022-03-04 10:45:51.894,5
611,12704,-0.29,1.17,-0.18,6.1,2022-03-04 10:45:51.993,5
612,12724,-0.3,1.48,-0.19,6.1,2022-03-04 10:45:52.093,5
613,12748,-0.27,1.51,-0.22,6.1,2022-03-04 10:45:52.191,5
614,12768,-0.71,1.59,-0.37,3.6,2022-03-04 10:45:52.290,5
615,12788,-0.34,1.38,-0.25,3.6,2022-03-04 10:45:52.390,5
616,12810,-0.33,1.31,-0.19,3.6,2022-03-04 10:45:52.499,5
617,12832,0.67,1.54,-0.66,3.6,2022-03-04 10:45:52.598,5
618,12852,-0.26,1.37,-0.33,3.6,2022-03-04 10:45:52.698,0
619,12872,-0.3,1.38,-0.18,3.6,2022-03-04 10:45:52.797,0
620,12892,-0.32,1.95,0.88,3.6,2022-03-04 10:45:52.898,0
621,12912,-0.32,1.42,1.07,3.6,2022-03-04 10:45:52.996,0
622,12932,-0.33,1.32,-0.35,3.6,2022-03-04 10:45:53.096,0
623,12950,-0.26,1.34,-0.22,3.6,2022-03-04 10:45:53.180,0
