,LineNumber,Accel_X,Accel_Y,Accel_Z,Velocity,RealTime,Label
0,30,-0.25,0.47,-0.28,0.4,2022-03-04 10:37:59.499,0
1,50,-0.22,0.39,-0.35,0.4,2022-03-04 10:37:59.589,0
2,70,-0.32,0.39,-0.53,0.4,2022-03-04 10:37:59.688,0
3,92,-0.6,0.39,-0.54,0.4,2022-03-04 10:37:59.799,0
4,112,-0.2,0.36,-0.19,0.4,2022-03-04 10:37:59.897,0
5,130,-0.21,0.39,-0.21,0.4,2022-03-04 10:37:59.986,0
6,152,-0.24,0.37,-0.29,0.4,2022-03-04 10:38:00.099,0
7,176,-0.24,0.3,-0.24,0.4,2022-03-04 10:38:00.195,0
8,196,0.16,0.3,-0.27,0.0,2022-03-04 10:38:00.295,0
9,216,-0.21,0.26,-0.29,0.0,2022-03-04 10:38:00.393,0
10,236,-0.23,0.29,-0.22,0.0,2022-03-04 10:38:00.492,0
11,258,0.16,0.23,-0.27,0.0,2022-03-04 10:38:00.597,0
12,278,-0.22,0.23,-0.21,0.0,2022-03-04 10:38:00.691,0
13,298,0.14,0.21,-0.24,0.0,2022-03-04 10:38:00.790,0
14,318,-0.22,0.27,-0.3,0.0,2022-03-04 10:38:00.890,0
15,338,-0.16,0.17,-0.25,0.0,2022-03-04 10:38:00.989,0
16,358,-0.19,0.21,-0.2,0.0,2022-03-04 10:38:01.089,0
17,380,-0.22,0.18,-0.26,0.0,2022-03-04 10:38:01.199,0
18,404,-0.17,0.14,-0.25,0.0,2022-03-04 10:38:01.297,0
19,424,-0.19,0.2,-0.23,0.0,2022-03-04 10:38:01.397,0
20,444,0.17,0.15,-0.26,0.0,2022-03-04 10:38:01.496,0
21,466,-0.2,0.16,-0.19,0.0,2022-03-04 10:38:01.596,0
22,486,-0.19,0.17,-0.26,0.0,2022-03-04 10:38:01.694,0
23,506,-0.19,0.11,-0.29,0.0,2022-03-04 10:38:01.794,0
24,526,-0.19,0.15,-0.27,0.0,2022-03-04 10:38:01.892,0
25,546,0.16,0.15,-0.27,0.0,2022-03-04 10:38:01.991,0
26,566,-0.2,0.13,-0.19,0.0,2022-03-04 10:38:02.092,0
27,590,-0.16,0.15,-0.24,0.0,2022-03-04 10:38:02.191,0
28,612,-0.2,0.14,-0.32,0.0,2022-03-04 10:38:02.299,0
29,632,-0.19,0.14,-0.25,0.0,2022-03-04 10:38:02.399,0
30,652,0.16,0.11,-0.32,0.0,2022-03-04 10:38:02.498,0
31,674,-0.16,0.15,-0.2,0.0,2022-03-04 10:38:02.597,0
32,694,0.17,0.14,-0.22,0.0,2022-03-04 10:38:02.698,0
33,714,-0.23,0.11,-0.32,0.0,2022-03-04 10:38:02.797,0
34,734,-0.19,0.16,-0.32,0.0,2022-03-04 10:38:02.898,0
35,754,0.16,0.11,-0.33,0.0,2022-03-04 10:38:02.995,0
36,774,-0.21,0.11,-0.26,0.0,2022-03-04 10:38:03.095,0
37,798,0.16,0.09,-0.28,0.0,2022-03-04 10:38:03.193,0
38,818,-0.21,0.13,-0.3,0.0,2022-03-04 10:38:03.292,0
39,838,-0.3,0.13,-0.36,0.0,2022-03-04 10:38:03.391,0
40,858,-0.21,0.14,-0.55,0.0,2022-03-04 10:38:03.490,0
41,880,-0.27,0.11,-0.32,0.0,2022-03-04 10:38:03.590,0
42,900,-0.17,0.08,-0.31,0.0,2022-03-04 10:38:03.689,0
43,922,0.2,-0.08,-0.27,0.0,2022-03-04 10:38:03.798,0
44,942,-0.35,0.14,-0.43,0.0,2022-03-04 10:38:03.899,0
45,962,-0.24,0.07,-0.42,0.0,2022-03-04 10:38:03.999,2
46,980,0.28,0.19,-0.26,0.0,2022-03-04 10:38:04.086,2
47,1006,-0.22,0.27,-0.41,0.0,2022-03-04 10:38:04.196,2
48,1026,-0.34,0.39,-0.49,0.0,2022-03-04 10:38:04.296,2
49,1046,-0.31,0.39,-0.41,0.0,2022-03-04 10:38:04.394,2
50,1066,-0.4,0.48,-0.39,0.0,2022-03-04 10:38:04.494,2
51,1088,0.26,1.02,-0.43,0.0,2022-03-04 10:38:04.593,2
52,1108,-0.33,1.19,-0.4,0.0,2022-03-04 10:38:04.691,2
53,1128,-0.4,1.16,-0.52,0.0,2022-03-04 10:38:04.791,2
54,1148,-0.61,1.26,-0.37,0.0,2022-03-04 10:38:04.890,2
55,1170,-0.54,1.26,-0.58,0.0,2022-03-04 10:38:04.999,2
56,1188,-0.54,1.47,-0.71,0.0,2022-03-04 10:38:05.089,2
57,1208,-0.61,1.53,-0.5,0.0,2022-03-04 10:38:05.187,2
58,1234,-0.77,1.8,-0.5,0.0,2022-03-04 10:38:05.297,2
59,1254,-0.56,1.92,-0.62,0.0,2022-03-04 10:38:05.398,2
60,1274,-0.91,1.93,-0.88,0.0,2022-03-04 10:38:05.496,2
61,1296,-0.96,2.11,-0.98,0.0,2022-03-04 10:38:05.595,2
62,1316,-0.79,2.26,-0.78,0.0,2022-03-04 10:38:05.695,2
63,1336,-1.08,2.3,-1.07,0.0,2022-03-04 10:38:05.794,2
64,1356,-0.61,2.69,1.0,0.0,2022-03-04 10:38:05.894,2
65,1376,-1.0,2.79,-1.14,0.0,2022-03-04 10:38:05.993,2
66,1396,-0.59,3.02,-1.26,0.0,2022-03-04 10:38:06.098,2
67,1420,-1.15,2.92,-1.01,8.6,2022-03-04 10:38:06.190,2
68,1440,-1.03,3.06,-1.05,8.6,2022-03-04 10:38:06.290,2
69,1462,-1.01,2.84,-1.67,8.6,2022-03-04 10:38:06.398,2
70,1482,-0.77,2.71,-1.72,8.6,2022-03-04 10:38:06.498,2
71,1504,-0.69,2.67,-0.65,8.6,2022-03-04 10:38:06.597,2
72,1524,-0.68,2.21,-0.9,8.6,2022-03-04 10:38:06.697,2
73,1544,-0.6,1.27,-0.82,8.6,2022-03-04 10:38:06.796,2
74,1564,-0.47,1.18,-0.78,8.6,2022-03-04 10:38:06.895,2
75,1584,0.45,1.45,-0.56,8.6,2022-03-04 10:38:06.995,2
76,1604,-0.48,1.35,-0.8,8.6,2022-03-04 10:38:07.094,2
77,1628,-0.5,1.08,0.6,14.8,2022-03-04 10:38:07.195,2
78,1648,-0.34,1.12,0.59,14.8,2022-03-04 10:38:07.293,2
79,1668,-0.27,1.35,-0.68,14.8,2022-03-04 10:38:07.396,2
80,1688,0.42,1.49,-0.85,14.8,2022-03-04 10:38:07.493,2
81,1710,-0.63,1.39,-0.71,14.8,2022-03-04 10:38:07.590,2
82,1732,-0.61,1.69,-0.6,14.8,2022-03-04 10:38:07.699,2
83,1752,-0.52,1.73,-0.39,14.8,2022-03-04 10:38:07.798,2
84,1772,-0.35,1.76,-0.78,14.8,2022-03-04 10:38:07.898,2
85,1792,-0.58,1.6,-0.75,14.8,2022-03-04 10:38:07.997,2
86,1812,-1.01,1.19,-0.67,14.8,2022-03-04 10:38:08.099,2
87,1832,-0.7,1.21,0.22,14.8,2022-03-04 10:38:08.197,2
88,1856,-0.84,0.89,-0.4,19.4,2022-03-04 10:38:08.295,2
89,1876,-0.92,1.1,-0.54,19.4,2022-03-04 10:38:08.395,2
90,1896,-0.65,0.94,-0.68,19.4,2022-03-04 10:38:08.494,2
91,1918,-1.07,1.02,-0.64,19.4,2022-03-04 10:38:08.594,2
92,1938,-0.69,1.12,-0.87,19.4,2022-03-04 10:38:08.694,2
93,1958,-0.97,1.27,-0.84,19.4,2022-03-04 10:38:08.791,2
94,1978,1.05,1.3,0.92,19.4,2022-03-04 10:38:08.893,2
95,2000,-1.06,1.01,1.3,19.4,2022-03-04 10:38:08.999,2
96,2018,-1.05,1.04,1.13,19.4,2022-03-04 10:38:09.089,2
97,2042,-0.76,1.13,1.0,23.8,2022-03-04 10:38:09.188,2
98,2064,-0.87,-0.65,-1.56,23.8,2022-03-04 10:38:09.298,2
99,2084,-0.77,-0.77,-1.14,23.8,2022-03-04 10:38:09.396,2
100,2104,1.07,-0.88,1.01,23.8,2022-03-04 10:38:09.495,2
101,2126,0.69,-0.71,0.89,23.8,2022-03-04 10:38:09.595,2
102,2146,-0.29,-0.8,-0.66,23.8,2022-03-04 10:38:09.695,2
103,2166,0.63,-1.22,-0.56,23.8,2022-03-04 10:38:09.796,2
104,2186,0.58,-0.86,-1.11,23.8,2022-03-04 10:38:09.896,2
105,2206,-0.56,-0.79,-0.86,23.8,2022-03-04 10:38:09.992,2
106,2226,0.84,-0.94,0.73,23.8,2022-03-04 10:38:10.091,2
107,2248,-0.53,-0.62,1.11,24.8,2022-03-04 10:38:10.195,2
108,2272,-0.6,1.47,-0.81,24.8,2022-03-04 10:38:10.299,2
109,2292,-0.66,1.73,-0.94,24.8,2022-03-04 10:38:10.399,2
110,2312,0.45,-1.15,-0.68,24.8,2022-03-04 10:38:10.498,2
111,2334,-0.55,2.02,0.93,24.8,2022-03-04 10:38:10.597,2
112,2354,-1.04,2.59,-1.12,24.8,2022-03-04 10:38:10.697,2
113,2374,0.47,0.53,-0.79,24.8,2022-03-04 10:38:10.796,2
114,2394,0.61,1.09,-0.43,24.8,2022-03-04 10:38:10.896,2
115,2414,-0.8,0.55,-0.73,24.8,2022-03-04 10:38:10.995,2
116,2432,0.79,1.26,-1.48,24.8,2022-03-04 10:38:11.086,2
117,2458,0.5,1.41,0.63,28.1,2022-03-04 10:38:11.193,2
118,2478,0.46,1.51,-0.69,28.1,2022-03-04 10:38:11.293,2
119,2498,-0.7,1.51,-1.68,28.1,2022-03-04 10:38:11.392,2
120,2518,0.63,1.04,-1.24,28.1,2022-03-04 10:38:11.492,2
121,2540,-0.93,0.69,0.95,28.1,2022-03-04 10:38:11.590,2
122,2562,0.64,0.53,1.34,28.1,2022-03-04 10:38:11.699,2
123,2582,-1.02,0.58,-1.84,28.1,2022-03-04 10:38:11.799,2
124,2602,-0.87,0.65,-1.49,28.1,2022-03-04 10:38:11.898,2
125,2622,0.85,0.6,1.37,28.1,2022-03-04 10:38:11.998,2
126,2640,-0.41,0.82,-1.0,28.1,2022-03-04 10:38:12.091,2
127,2666,-1.28,0.86,-1.44,32.4,2022-03-04 10:38:12.195,2
128,2686,-0.68,0.67,1.19,32.4,2022-03-04 10:38:12.295,2
129,2706,-0.66,0.59,1.35,32.4,2022-03-04 10:38:12.395,2
130,2726,-0.66,0.63,-1.26,32.4,2022-03-04 10:38:12.493,2
131,2748,-0.59,0.6,-1.08,32.4,2022-03-04 10:38:12.593,2
132,2768,0.77,0.46,1.25,32.4,2022-03-04 10:38:12.692,2
133,2788,-0.64,0.76,-1.4,32.4,2022-03-04 10:38:12.792,2
134,2808,-0.99,0.51,-0.85,32.4,2022-03-04 10:38:12.890,2
135,2828,-0.39,0.66,-0.59,32.4,2022-03-04 10:38:12.993,2
136,2850,-0.75,0.71,1.92,32.4,2022-03-04 10:38:13.099,2
137,2870,0.82,-0.43,-1.2,32.4,2022-03-04 10:38:13.199,2
138,2894,-0.86,0.92,1.39,35.6,2022-03-04 10:38:13.297,2
139,2914,0.84,0.59,-1.4,35.6,2022-03-04 10:38:13.396,2
140,2934,-0.61,0.68,-1.37,35.6,2022-03-04 10:38:13.497,2
141,2956,1.11,0.96,-0.79,35.6,2022-03-04 10:38:13.595,2
142,2976,-0.73,-0.36,-0.87,35.6,2022-03-04 10:38:13.694,2
143,2996,-0.57,-0.38,0.93,35.6,2022-03-04 10:38:13.793,2
144,3016,-0.2,-0.92,-0.94,35.6,2022-03-04 10:38:13.893,2
145,3036,-0.86,-1.09,-0.95,35.6,2022-03-04 10:38:13.994,2
146,3056,-1.19,-0.92,0.72,35.6,2022-03-04 10:38:14.093,2
147,3080,0.8,-1.1,-0.82,37.4,2022-03-04 10:38:14.191,2
148,3100,-0.55,-0.85,-0.88,37.4,2022-03-04 10:38:14.290,2
149,3122,-0.77,-0.86,-0.57,37.4,2022-03-04 10:38:14.399,2
150,3142,0.4,-0.98,-0.6,37.4,2022-03-04 10:38:14.498,2
151,3164,-0.88,0.52,-1.13,37.4,2022-03-04 10:38:14.597,2
152,3184,-0.95,-1.13,-0.77,37.4,2022-03-04 10:38:14.697,2
153,3204,0.6,-0.74,-0.98,37.4,2022-03-04 10:38:14.796,2
154,3224,0.79,0.44,0.77,37.4,2022-03-04 10:38:14.896,2
155,3244,1.03,0.32,-0.43,37.4,2022-03-04 10:38:14.995,2
156,3264,-0.69,0.34,-0.91,37.4,2022-03-04 10:38:15.096,2
157,3288,1.0,0.5,1.74,38.9,2022-03-04 10:38:15.193,2
158,3308,-1.04,0.5,-1.3,38.9,2022-03-04 10:38:15.294,2
159,3328,-1.38,0.56,1.23,38.9,2022-03-04 10:38:15.394,2
160,3348,0.9,0.48,-1.27,38.9,2022-03-04 10:38:15.492,2
161,3370,-0.7,0.76,-1.61,38.9,2022-03-04 10:38:15.591,2
162,3390,-1.19,0.75,1.15,38.9,2022-03-04 10:38:15.690,2
163,3412,-1.81,1.11,-2.1,38.9,2022-03-04 10:38:15.799,2
164,3432,-1.22,0.83,-1.45,38.9,2022-03-04 10:38:15.898,2
165,3452,-0.79,0.37,-1.37,38.9,2022-03-04 10:38:15.997,2
166,3470,1.28,-0.62,-1.39,38.9,2022-03-04 10:38:16.088,2
167,3496,-0.47,-0.4,1.41,41.4,2022-03-04 10:38:16.196,2
168,3516,0.64,-0.38,1.28,41.4,2022-03-04 10:38:16.295,10
169,3536,-1.23,-0.43,-1.11,41.4,2022-03-04 10:38:16.394,10
170,3556,-1.1,-0.57,1.33,41.4,2022-03-04 10:38:16.494,10
171,3578,-1.55,-0.38,-1.14,41.4,2022-03-04 10:38:16.598,10
172,3598,0.55,-0.46,-0.98,41.4,2022-03-04 10:38:16.693,10
173,3618,1.04,-0.46,-0.47,41.4,2022-03-04 10:38:16.791,10
174,3638,0.83,-0.31,1.17,41.4,2022-03-04 10:38:16.891,10
175,3658,0.67,-0.39,0.59,41.4,2022-03-04 10:38:16.991,10
176,3678,0.68,-0.56,-0.51,41.4,2022-03-04 10:38:17.090,10
177,3700,0.57,-0.39,-1.08,41.4,2022-03-04 10:38:17.199,10
178,3724,0.64,-0.37,-0.94,43.2,2022-03-04 10:38:17.297,10
179,3744,0.81,-0.32,-1.15,43.2,2022-03-04 10:38:17.398,10
180,3764,1.27,-0.47,1.19,43.2,2022-03-04 10:38:17.496,10
181,3786,0.98,-0.43,-1.25,43.2,2022-03-04 10:38:17.595,10
182,3806,-1.16,-0.59,-1.13,43.2,2022-03-04 10:38:17.695,10
183,3826,0.85,-0.73,-1.91,43.2,2022-03-04 10:38:17.794,10
184,3846,-0.92,-0.51,-1.14,43.2,2022-03-04 10:38:17.893,10
185,3866,0.54,-0.55,0.49,43.2,2022-03-04 10:38:17.993,10
186,3886,0.85,-0.69,0.58,43.2,2022-03-04 10:38:18.091,10
187,3910,0.6,-0.42,-0.97,44.3,2022-03-04 10:38:18.191,10
188,3930,0.65,-0.43,1.22,44.3,2022-03-04 10:38:18.290,10
189,3950,0.6,-0.68,-0.76,44.3,2022-03-04 10:38:18.398,10
190,3972,0.6,-0.51,-1.42,44.3,2022-03-04 10:38:18.499,10
191,3994,0.44,-0.89,1.24,44.3,2022-03-04 10:38:18.599,10
192,4014,1.57,-1.29,0.98,44.3,2022-03-04 10:38:18.697,10
193,4034,1.96,-1.15,1.51,44.3,2022-03-04 10:38:18.796,10
194,4054,1.13,-1.05,-0.99,44.3,2022-03-04 10:38:18.896,10
195,4074,0.91,-0.7,0.91,44.3,2022-03-04 10:38:18.995,10
196,4094,1.13,-1.21,-0.6,44.3,2022-03-04 10:38:19.094,10
197,4118,0.62,-1.03,1.07,45.0,2022-03-04 10:38:19.194,10
198,4138,0.69,-0.87,-0.67,45.0,2022-03-04 10:38:19.292,10
199,4158,0.63,-0.94,-1.06,45.0,2022-03-04 10:38:19.392,10
200,4178,-0.57,-0.97,-1.14,45.0,2022-03-04 10:38:19.491,10
201,4200,0.6,-0.65,0.74,45.0,2022-03-04 10:38:19.591,10
202,4220,0.66,-0.51,-0.49,45.0,2022-03-04 10:38:19.690,10
203,4240,-1.05,-0.49,0.7,45.0,2022-03-04 10:38:19.789,10
204,4260,0.93,-0.5,-0.94,45.0,2022-03-04 10:38:19.889,10
205,4282,0.8,-0.28,-0.89,45.0,2022-03-04 10:38:19.998,10
206,4300,0.66,-0.34,-0.81,45.0,2022-03-04 10:38:20.088,10
207,4326,1.25,-0.26,-0.85,45.4,2022-03-04 10:38:20.197,10
208,4346,0.88,0.25,-1.28,45.4,2022-03-04 10:38:20.295,10
209,4366,1.26,-0.38,0.87,45.4,2022-03-04 10:38:20.394,10
210,4386,-1.21,-0.4,-1.03,45.4,2022-03-04 10:38:20.495,10
211,4408,0.77,0.54,0.65,45.4,2022-03-04 10:38:20.593,10
212,4428,-1.36,0.42,-0.63,45.4,2022-03-04 10:38:20.692,10
213,4448,-0.67,-0.34,0.92,45.4,2022-03-04 10:38:20.792,10
214,4468,1.16,-0.38,1.02,45.4,2022-03-04 10:38:20.891,10
215,4488,0.65,-0.36,-0.57,45.4,2022-03-04 10:38:20.990,10
216,4510,0.55,-0.56,-1.06,45.4,2022-03-04 10:38:21.099,10
217,4528,0.51,-0.43,1.14,45.4,2022-03-04 10:38:21.189,10
218,4554,0.6,-0.56,0.64,46.8,2022-03-04 10:38:21.299,10
219,4574,-0.57,-0.26,-0.53,46.8,2022-03-04 10:38:21.399,10
220,4594,-0.67,-0.58,-0.84,46.8,2022-03-04 10:38:21.498,10
221,4616,-0.5,-0.42,-0.9,46.8,2022-03-04 10:38:21.596,10
222,4636,-0.85,-0.46,0.81,46.8,2022-03-04 10:38:21.695,10
223,4656,-0.34,-0.53,-1.03,46.8,2022-03-04 10:38:21.794,10
224,4676,-0.89,-0.53,0.5,46.8,2022-03-04 10:38:21.893,10
225,4696,-0.67,-0.62,0.77,46.8,2022-03-04 10:38:21.993,10
226,4716,-1.02,-0.6,0.71,46.8,2022-03-04 10:38:22.094,10
227,4740,0.57,-0.6,-0.88,47.9,2022-03-04 10:38:22.192,5
228,4760,-0.79,-0.61,-0.59,47.9,2022-03-04 10:38:22.290,5
229,4780,-0.34,-0.6,-0.81,47.9,2022-03-04 10:38:22.390,5
230,4800,-0.82,-0.72,-0.62,47.9,2022-03-04 10:38:22.489,5
231,4822,0.66,-0.7,-0.55,47.9,2022-03-04 10:38:22.589,5
232,4844,-0.59,-0.89,-0.79,47.9,2022-03-04 10:38:22.699,5
233,4864,0.37,-1.07,0.66,47.9,2022-03-04 10:38:22.799,5
234,4884,-0.84,-0.71,-0.54,47.9,2022-03-04 10:38:22.898,5
235,4904,-0.83,-0.8,-1.45,47.9,2022-03-04 10:38:22.998,5
236,4922,-2.17,-1.05,1.72,47.9,2022-03-04 10:38:23.085,5
237,4948,-1.08,-1.2,1.52,48.2,2022-03-04 10:38:23.194,5
238,4968,1.64,-1.84,-1.82,48.2,2022-03-04 10:38:23.293,5
239,4988,-0.9,-1.01,-1.3,48.2,2022-03-04 10:38:23.392,5
240,5008,0.77,-0.97,0.72,48.2,2022-03-04 10:38:23.491,5
241,5030,0.83,-0.94,-0.82,48.2,2022-03-04 10:38:23.592,5
242,5050,0.57,-1.02,-0.82,48.2,2022-03-04 10:38:23.690,5
243,5070,0.43,-1.14,-0.46,48.2,2022-03-04 10:38:23.789,5
244,5090,0.78,-1.09,-0.38,48.2,2022-03-04 10:38:23.889,5
245,5110,0.46,-1.21,-0.44,48.2,2022-03-04 10:38:23.989,5
246,5130,0.36,-1.25,-0.44,48.2,2022-03-04 10:38:24.089,5
247,5156,0.68,-1.42,-0.62,48.2,2022-03-04 10:38:24.197,5
248,5176,-1.03,-1.62,-0.63,47.2,2022-03-04 10:38:24.299,5
249,5196,0.71,-1.51,-1.25,47.2,2022-03-04 10:38:24.395,5
250,5216,0.74,-1.58,-1.1,47.2,2022-03-04 10:38:24.495,5
251,5238,0.45,-1.59,-0.8,47.2,2022-03-04 10:38:24.594,5
252,5258,0.68,-1.54,-0.8,47.2,2022-03-04 10:38:24.692,5
253,5278,0.97,-1.62,0.31,47.2,2022-03-04 10:38:24.792,5
254,5298,1.14,-1.76,-0.73,47.2,2022-03-04 10:38:24.892,5
255,5318,0.88,-1.88,-0.83,47.2,2022-03-04 10:38:24.990,5
256,5338,0.65,-1.94,0.67,47.2,2022-03-04 10:38:25.090,5
257,5358,0.53,-1.98,0.56,47.2,2022-03-04 10:38:25.189,5
258,5384,1.05,-2.06,-0.74,47.2,2022-03-04 10:38:25.299,5
259,5404,0.84,-1.95,-0.61,44.3,2022-03-04 10:38:25.399,5
260,5422,1.08,-2.04,0.72,44.3,2022-03-04 10:38:25.487,5
261,5446,1.13,-1.78,-0.64,44.3,2022-03-04 10:38:25.598,5
262,5466,0.6,-1.77,-0.65,44.3,2022-03-04 10:38:25.697,5
263,5486,0.71,-1.79,0.82,44.3,2022-03-04 10:38:25.796,5
264,5506,0.69,-1.75,0.65,44.3,2022-03-04 10:38:25.896,5
265,5526,0.76,-1.92,-0.94,44.3,2022-03-04 10:38:25.995,5
266,5546,0.56,-1.7,-1.03,44.3,2022-03-04 10:38:26.094,5
267,5570,0.63,-1.79,-0.53,44.3,2022-03-04 10:38:26.192,5
268,5590,0.65,-1.74,-0.38,39.6,2022-03-04 10:38:26.291,5
269,5610,0.69,-1.62,-0.64,39.6,2022-03-04 10:38:26.390,5
270,5630,0.78,-1.95,-0.63,39.6,2022-03-04 10:38:26.489,5
271,5654,0.61,-1.89,-0.89,39.6,2022-03-04 10:38:26.598,5
272,5674,0.96,-1.73,-0.87,39.6,2022-03-04 10:38:26.698,5
273,5694,0.76,-1.52,0.6,39.6,2022-03-04 10:38:26.798,5
274,5714,0.52,-1.26,-0.8,39.6,2022-03-04 10:38:26.898,5
275,5734,0.95,-1.18,-0.69,39.6,2022-03-04 10:38:26.997,5
276,5754,0.71,-1.11,-0.69,39.6,2022-03-04 10:38:27.097,5
277,5778,0.93,-1.09,-0.68,39.6,2022-03-04 10:38:27.195,5
278,5798,1.04,-0.95,-0.64,35.3,2022-03-04 10:38:27.296,5
279,5818,1.21,-0.87,-0.81,35.3,2022-03-04 10:38:27.396,5
280,5838,0.9,-0.97,-0.55,35.3,2022-03-04 10:38:27.492,5
281,5860,1.1,-1.08,-0.49,35.3,2022-03-04 10:38:27.591,5
282,5880,1.46,-0.91,-0.7,35.3,2022-03-04 10:38:27.690,5
283,5900,1.35,-1.02,-0.64,35.3,2022-03-04 10:38:27.790,5
284,5922,1.09,-0.8,-0.54,35.3,2022-03-04 10:38:27.899,5
285,5942,1.16,-0.78,0.59,35.3,2022-03-04 10:38:27.999,5
286,5962,1.17,-0.89,0.52,35.3,2022-03-04 10:38:28.098,5
287,5986,1.4,-0.81,0.95,35.3,2022-03-04 10:38:28.197,5
288,6006,1.42,-0.73,0.55,31.3,2022-03-04 10:38:28.296,5
289,6026,1.26,-0.72,0.91,31.3,2022-03-04 10:38:28.396,5
290,6046,1.3,-0.85,-0.84,31.3,2022-03-04 10:38:28.496,5
291,6068,1.16,-0.53,-0.81,31.3,2022-03-04 10:38:28.596,5
292,6088,1.17,-0.42,-0.57,31.3,2022-03-04 10:38:28.695,5
293,6108,1.43,-0.48,0.37,31.3,2022-03-04 10:38:28.794,5
294,6128,1.5,-0.33,-0.73,31.3,2022-03-04 10:38:28.891,5
295,6148,1.91,-0.36,-0.35,31.3,2022-03-04 10:38:28.991,5
296,6168,1.78,-0.34,-0.75,31.3,2022-03-04 10:38:29.097,5
297,6194,1.47,-0.42,0.81,31.3,2022-03-04 10:38:29.199,5
298,6214,1.55,-0.6,-0.8,28.4,2022-03-04 10:38:29.299,5
299,6234,1.52,-0.77,-0.92,28.4,2022-03-04 10:38:29.398,5
300,6254,1.32,-0.68,-0.65,28.4,2022-03-04 10:38:29.497,5
301,6276,1.16,-0.87,-0.57,28.4,2022-03-04 10:38:29.596,8
302,6296,0.79,-0.77,-0.89,28.4,2022-03-04 10:38:29.696,8
303,6316,0.4,-0.8,0.53,28.4,2022-03-04 10:38:29.796,8
304,6336,-0.72,-0.91,0.44,28.4,2022-03-04 10:38:29.896,8
305,6356,-1.07,-0.62,-0.55,28.4,2022-03-04 10:38:29.994,8
306,6376,-1.13,-0.55,-0.57,28.4,2022-03-04 10:38:30.093,8
307,6400,-1.2,-0.56,0.38,28.4,2022-03-04 10:38:30.193,8
308,6420,-1.59,-0.75,0.35,24.8,2022-03-04 10:38:30.293,8
309,6440,-1.63,-0.65,-0.58,24.8,2022-03-04 10:38:30.391,8
310,6460,-1.84,-0.74,-0.44,24.8,2022-03-04 10:38:30.490,8
311,6484,-1.74,-0.69,-0.57,24.8,2022-03-04 10:38:30.599,8
312,6504,-2.27,-0.89,1.09,24.8,2022-03-04 10:38:30.698,8
313,6524,-2.25,-0.94,0.97,24.8,2022-03-04 10:38:30.797,8
314,6544,-2.34,-1.1,0.7,24.8,2022-03-04 10:38:30.897,8
315,6564,-2.36,-1.21,0.5,24.8,2022-03-04 10:38:30.996,8
316,6584,-2.21,-1.2,-0.34,24.8,2022-03-04 10:38:31.096,8
317,6608,-2.22,-1.36,0.55,24.8,2022-03-04 10:38:31.195,8
318,6628,-2.07,-1.25,0.68,22.0,2022-03-04 10:38:31.298,8
319,6648,-2.41,-1.33,-0.63,22.0,2022-03-04 10:38:31.394,8
320,6668,-2.7,-1.39,0.54,22.0,2022-03-04 10:38:31.493,8
321,6690,-3.43,-1.72,-0.19,22.0,2022-03-04 10:38:31.596,8
322,6710,-3.78,-1.92,0.27,22.0,2022-03-04 10:38:31.692,8
323,6730,-3.34,-1.77,-0.37,22.0,2022-03-04 10:38:31.792,8
324,6750,-3.06,-1.55,-0.32,22.0,2022-03-04 10:38:31.890,8
325,6772,-2.99,-1.17,0.44,22.0,2022-03-04 10:38:31.998,8
326,6792,-3.33,-0.82,0.56,22.0,2022-03-04 10:38:32.098,8
327,6816,-3.14,-0.68,-0.33,22.0,2022-03-04 10:38:32.197,8
328,6836,-3.28,-0.55,-0.64,18.0,2022-03-04 10:38:32.297,8
329,6856,-2.89,-0.63,-0.3,18.0,2022-03-04 10:38:32.396,8
330,6876,-2.74,-0.7,-0.47,18.0,2022-03-04 10:38:32.495,8
331,6898,-2.86,-0.63,-0.35,18.0,2022-03-04 10:38:32.594,8
332,6918,-2.63,-0.66,-0.55,18.0,2022-03-04 10:38:32.694,8
333,6938,-2.69,-0.32,0.32,18.0,2022-03-04 10:38:32.794,8
334,6958,-2.48,-0.31,-0.6,18.0,2022-03-04 10:38:32.895,8
335,6978,-2.37,0.19,-0.54,18.0,2022-03-04 10:38:32.992,8
336,6998,-2.4,-0.34,-0.48,18.0,2022-03-04 10:38:33.094,8
337,7022,-1.94,-0.28,0.74,18.0,2022-03-04 10:38:33.191,8
338,7044,-2.28,-0.26,0.64,16.9,2022-03-04 10:38:33.299,8
339,7064,-2.46,-0.29,-0.54,16.9,2022-03-04 10:38:33.398,8
340,7084,-2.57,-0.25,-0.82,16.9,2022-03-04 10:38:33.498,8
341,7106,-2.02,-0.24,-0.48,16.9,2022-03-04 10:38:33.598,8
342,7126,-2.5,-0.41,-0.98,16.9,2022-03-04 10:38:33.696,8
343,7146,-2.47,-0.61,0.7,16.9,2022-03-04 10:38:33.795,8
344,7166,-2.57,-0.48,0.66,16.9,2022-03-04 10:38:33.895,8
345,7186,-2.26,-0.51,-1.0,16.9,2022-03-04 10:38:33.994,8
346,7206,-1.97,-0.5,0.83,16.9,2022-03-04 10:38:34.093,8
347,7228,-2.16,-0.62,-0.87,16.9,2022-03-04 10:38:34.197,8
348,7250,-2.34,-0.65,0.36,15.8,2022-03-04 10:38:34.292,8
349,7270,-2.46,-0.93,0.62,15.8,2022-03-04 10:38:34.392,8
350,7290,-2.61,-1.14,-0.45,15.8,2022-03-04 10:38:34.491,8
351,7314,-2.65,-1.17,0.81,15.8,2022-03-04 10:38:34.599,8
352,7334,-2.4,-1.12,-0.8,15.8,2022-03-04 10:38:34.698,8
353,7354,-2.29,-1.23,-0.79,15.8,2022-03-04 10:38:34.798,8
354,7374,-2.47,-1.18,0.44,15.8,2022-03-04 10:38:34.897,8
355,7394,-2.27,-1.33,-0.62,15.8,2022-03-04 10:38:34.996,8
356,7414,-3.03,-1.51,1.14,15.8,2022-03-04 10:38:35.098,8
357,7434,-2.85,-1.4,-0.88,15.8,2022-03-04 10:38:35.195,8
358,7458,-2.65,-1.45,0.74,15.8,2022-03-04 10:38:35.294,8
359,7478,-2.97,-1.44,-0.5,15.8,2022-03-04 10:38:35.394,8
360,7498,-3.37,-1.54,0.9,15.8,2022-03-04 10:38:35.492,8
361,7520,-3.0,-1.74,0.6,15.8,2022-03-04 10:38:35.592,8
362,7540,-2.88,-1.7,0.88,15.8,2022-03-04 10:38:35.692,8
363,7560,-3.01,-1.72,1.13,15.8,2022-03-04 10:38:35.791,8
364,7580,-3.28,-1.84,0.87,15.8,2022-03-04 10:38:35.891,8
365,7602,-3.89,-2.0,0.89,15.8,2022-03-04 10:38:35.999,8
366,7620,-3.99,-2.0,1.2,15.8,2022-03-04 10:38:36.092,8
367,7646,-4.74,-2.05,0.54,18.7,2022-03-04 10:38:36.198,8
368,7666,-4.37,-2.06,1.67,18.7,2022-03-04 10:38:36.296,8
369,7686,-3.91,-1.86,1.46,18.7,2022-03-04 10:38:36.396,8
370,7706,-3.99,-1.97,1.01,18.7,2022-03-04 10:38:36.495,8
371,7728,-4.21,-2.15,0.82,18.7,2022-03-04 10:38:36.594,8
372,7748,-4.14,-1.73,-1.95,18.7,2022-03-04 10:38:36.695,8
373,7768,-4.73,-1.71,1.39,18.7,2022-03-04 10:38:36.794,8
374,7788,-3.93,-1.51,-1.11,18.7,2022-03-04 10:38:36.894,8
375,7808,-2.81,-1.43,-1.46,18.7,2022-03-04 10:38:36.992,8
376,7828,-2.19,-1.56,1.63,18.7,2022-03-04 10:38:37.092,8
377,7852,-1.66,-1.03,-1.71,23.0,2022-03-04 10:38:37.192,8
378,7874,-1.51,-1.03,1.43,23.0,2022-03-04 10:38:37.299,8
379,7894,-1.71,-0.64,1.12,23.0,2022-03-04 10:38:37.398,8
380,7914,-1.58,-0.88,-1.02,23.0,2022-03-04 10:38:37.498,8
381,7936,-1.13,-0.59,-0.71,23.0,2022-03-04 10:38:37.598,8
382,7956,-1.05,-0.5,-0.81,23.0,2022-03-04 10:38:37.696,8
383,7976,-0.77,-0.53,-0.5,23.0,2022-03-04 10:38:37.795,8
384,7996,-1.16,-0.5,-0.79,23.0,2022-03-04 10:38:37.895,2
385,8016,-1.11,-0.7,-0.57,23.0,2022-03-04 10:38:37.996,2
386,8036,-0.74,-0.71,0.55,23.0,2022-03-04 10:38:38.095,2
387,8060,0.45,-0.57,0.62,23.0,2022-03-04 10:38:38.193,2
388,8080,1.24,-0.6,0.67,22.3,2022-03-04 10:38:38.292,2
389,8100,0.61,-0.55,-0.84,22.3,2022-03-04 10:38:38.391,2
390,8120,0.67,-0.53,0.62,22.3,2022-03-04 10:38:38.492,2
391,8142,0.99,-0.68,0.93,22.3,2022-03-04 10:38:38.589,2
392,8164,0.97,-0.45,0.56,22.3,2022-03-04 10:38:38.698,2
393,8184,0.71,-0.38,-1.0,22.3,2022-03-04 10:38:38.798,2
394,8204,0.7,-0.45,-0.61,22.3,2022-03-04 10:38:38.898,2
395,8224,0.92,-0.61,0.69,22.3,2022-03-04 10:38:38.996,2
396,8244,1.86,-0.52,1.07,22.3,2022-03-04 10:38:39.096,2
397,8268,0.94,-0.39,-1.2,25.9,2022-03-04 10:38:39.196,2
398,8288,1.43,-0.56,0.74,25.9,2022-03-04 10:38:39.294,2
399,8308,1.29,-0.38,1.48,25.9,2022-03-04 10:38:39.394,2
400,8328,1.33,-0.57,-1.02,25.9,2022-03-04 10:38:39.493,2
401,8350,1.63,0.9,-2.2,25.9,2022-03-04 10:38:39.592,2
402,8370,1.58,-0.69,-2.75,25.9,2022-03-04 10:38:39.691,2
403,8390,1.71,-0.83,1.27,25.9,2022-03-04 10:38:39.791,2
404,8410,1.63,-0.44,-0.66,25.9,2022-03-04 10:38:39.891,2
405,8432,1.59,-0.49,-0.9,25.9,2022-03-04 10:38:39.999,2
406,8452,1.4,-0.31,0.94,25.9,2022-03-04 10:38:40.098,2
407,8476,1.27,0.4,-1.27,29.5,2022-03-04 10:38:40.198,2
408,8494,1.21,0.33,-0.92,29.5,2022-03-04 10:38:40.287,2
409,8516,1.57,-0.36,1.17,29.5,2022-03-04 10:38:40.396,2
410,8536,1.51,0.32,-0.68,29.5,2022-03-04 10:38:40.496,2
411,8558,1.49,0.53,0.82,29.5,2022-03-04 10:38:40.595,2
412,8578,1.37,0.57,-1.04,29.5,2022-03-04 10:38:40.694,2
413,8598,0.91,0.31,1.34,29.5,2022-03-04 10:38:40.793,2
414,8618,0.82,-0.25,-1.02,29.5,2022-03-04 10:38:40.892,2
415,8638,1.04,-0.48,-1.76,29.5,2022-03-04 10:38:40.992,2
416,8658,1.28,-0.27,0.9,29.5,2022-03-04 10:38:41.091,2
417,8682,1.09,-0.24,-1.05,32.8,2022-03-04 10:38:41.190,2
418,8702,1.29,0.45,-1.14,32.8,2022-03-04 10:38:41.291,2
419,8724,1.26,-0.34,1.41,32.8,2022-03-04 10:38:41.399,2
420,8744,1.12,-0.36,1.34,32.8,2022-03-04 10:38:41.498,2
421,8766,1.06,-0.3,1.06,32.8,2022-03-04 10:38:41.597,2
422,8786,1.37,-0.24,-0.92,32.8,2022-03-04 10:38:41.697,2
423,8806,0.97,-0.45,1.2,32.8,2022-03-04 10:38:41.796,2
424,8826,1.36,0.32,0.61,32.8,2022-03-04 10:38:41.895,2
425,8846,0.88,0.35,-0.74,32.8,2022-03-04 10:38:41.994,2
426,8866,0.95,0.36,-0.78,32.8,2022-03-04 10:38:42.094,2
427,8890,1.25,-0.47,0.72,35.6,2022-03-04 10:38:42.194,2
428,8910,1.1,-0.4,-0.81,35.6,2022-03-04 10:38:42.293,2
429,8930,1.2,-0.44,-0.51,35.6,2022-03-04 10:38:42.392,2
430,8950,1.03,-0.25,0.61,35.6,2022-03-04 10:38:42.491,2
431,8972,1.11,-0.33,-0.85,35.6,2022-03-04 10:38:42.590,2
432,8994,-0.81,-0.96,0.66,35.6,2022-03-04 10:38:42.699,2
433,9014,0.34,-1.69,-1.02,35.6,2022-03-04 10:38:42.798,2
434,9034,-1.15,-1.78,-0.81,35.6,2022-03-04 10:38:42.898,2
435,9054,-0.79,-1.47,-0.65,35.6,2022-03-04 10:38:42.997,2
436,9074,-0.82,-1.43,-0.66,35.6,2022-03-04 10:38:43.096,2
437,9094,-0.76,-1.9,-0.64,35.6,2022-03-04 10:38:43.195,2
438,9118,1.01,-1.61,0.57,37.4,2022-03-04 10:38:43.295,2
439,9138,0.46,-1.56,0.52,37.4,2022-03-04 10:38:43.394,2
440,9158,0.71,-1.41,0.51,37.4,2022-03-04 10:38:43.493,2
441,9180,0.57,-1.41,0.8,37.4,2022-03-04 10:38:43.593,2
442,9200,0.47,-1.4,0.81,37.4,2022-03-04 10:38:43.692,2
443,9220,1.04,-0.99,0.8,37.4,2022-03-04 10:38:43.791,2
444,9240,-0.78,-1.3,-0.75,37.4,2022-03-04 10:38:43.890,2
445,9260,0.83,-1.43,-1.12,37.4,2022-03-04 10:38:43.990,2
446,9280,0.71,-1.12,0.86,37.4,2022-03-04 10:38:44.089,2
447,9306,0.56,-1.1,-0.93,37.8,2022-03-04 10:38:44.199,2
448,9324,0.72,-0.86,1.0,37.8,2022-03-04 10:38:44.288,2
449,9346,0.95,-0.77,-0.49,37.8,2022-03-04 10:38:44.396,2
450,9366,0.91,-0.96,-0.44,37.8,2022-03-04 10:38:44.496,2
451,9388,0.96,-0.77,0.83,37.8,2022-03-04 10:38:44.595,2
452,9408,1.02,-1.17,-0.96,37.8,2022-03-04 10:38:44.694,2
453,9428,-0.65,-0.68,-0.47,37.8,2022-03-04 10:38:44.796,2
454,9448,-1.18,-0.87,-0.6,37.8,2022-03-04 10:38:44.893,2
455,9468,-1.2,-0.66,-1.04,37.8,2022-03-04 10:38:44.992,2
456,9488,0.41,-0.73,-1.18,37.8,2022-03-04 10:38:45.091,2
457,9512,1.06,-0.6,-1.06,39.2,2022-03-04 10:38:45.191,2
458,9532,1.24,-0.68,1.18,39.2,2022-03-04 10:38:45.290,2
459,9552,1.29,-0.73,-1.37,39.2,2022-03-04 10:38:45.390,2
460,9572,-1.26,-0.54,-2.13,39.2,2022-03-04 10:38:45.488,2
461,9596,1.66,-0.55,-1.23,39.2,2022-03-04 10:38:45.598,2
462,9616,1.72,-0.56,2.05,39.2,2022-03-04 10:38:45.697,2
463,9636,1.21,-0.66,-2.31,39.2,2022-03-04 10:38:45.796,2
464,9656,-0.94,0.76,-2.63,39.2,2022-03-04 10:38:45.896,2
465,9676,0.88,-0.57,-2.24,39.2,2022-03-04 10:38:45.995,2
466,9696,-1.36,1.13,1.97,39.2,2022-03-04 10:38:46.094,2
467,9720,1.2,0.63,-1.42,41.0,2022-03-04 10:38:46.193,2
468,9740,0.82,-0.36,2.27,41.0,2022-03-04 10:38:46.293,2
469,9760,-1.03,0.96,2.17,41.0,2022-03-04 10:38:46.391,2
470,9780,0.93,-0.8,-2.78,41.0,2022-03-04 10:38:46.491,2
471,9802,0.84,-0.58,-0.87,41.0,2022-03-04 10:38:46.590,2
472,9822,1.05,-0.97,-0.68,41.0,2022-03-04 10:38:46.690,2
473,9844,0.92,-0.72,-0.75,41.0,2022-03-04 10:38:46.799,2
474,9864,0.46,-0.95,-1.08,41.0,2022-03-04 10:38:46.899,10
475,9884,0.37,-0.75,-0.61,41.0,2022-03-04 10:38:46.999,10
476,9904,0.55,-0.67,-0.91,41.0,2022-03-04 10:38:47.099,10
477,9928,0.99,-0.68,-1.03,43.2,2022-03-04 10:38:47.197,10
478,9948,0.43,-0.66,-0.83,43.2,2022-03-04 10:38:47.296,10
479,9968,0.76,-0.63,-0.99,43.2,2022-03-04 10:38:47.394,10
480,9988,0.69,-0.8,-1.0,43.2,2022-03-04 10:38:47.494,10
481,10010,0.61,-0.69,-0.67,43.2,2022-03-04 10:38:47.593,10
482,10030,0.7,-0.99,0.91,43.2,2022-03-04 10:38:47.692,10
483,10050,-0.51,-0.66,0.93,43.2,2022-03-04 10:38:47.791,10
484,10070,0.67,-1.01,-0.61,43.2,2022-03-04 10:38:47.891,10
485,10090,-0.4,-0.82,-1.19,43.2,2022-03-04 10:38:47.990,10
486,10110,0.64,-1.4,-1.01,43.2,2022-03-04 10:38:48.089,10
487,10136,-0.77,-1.31,-1.0,43.9,2022-03-04 10:38:48.199,10
488,10156,1.14,-1.3,0.45,43.9,2022-03-04 10:38:48.298,10
489,10176,0.56,-1.15,0.63,43.9,2022-03-04 10:38:48.399,10
490,10196,0.58,-1.44,-0.65,43.9,2022-03-04 10:38:48.498,10
491,10218,0.86,-1.23,0.68,43.9,2022-03-04 10:38:48.595,10
492,10238,1.0,-1.14,0.35,43.9,2022-03-04 10:38:48.695,10
493,10258,-0.53,-1.31,1.27,43.9,2022-03-04 10:38:48.794,10
494,10278,-0.83,-1.11,-0.58,43.9,2022-03-04 10:38:48.893,10
495,10298,0.88,-1.2,-0.55,43.9,2022-03-04 10:38:48.992,10
496,10318,0.68,-1.3,-0.74,43.9,2022-03-04 10:38:49.094,10
497,10338,0.66,-1.25,0.84,43.9,2022-03-04 10:38:49.191,10
498,10362,0.67,-1.23,-0.6,44.6,2022-03-04 10:38:49.290,10
499,10382,0.47,-0.97,-1.45,44.6,2022-03-04 10:38:49.389,10
500,10402,0.72,-1.09,-0.71,44.6,2022-03-04 10:38:49.489,10
501,10426,0.59,-0.64,0.94,44.6,2022-03-04 10:38:49.599,10
502,10446,-0.95,-0.53,-0.49,44.6,2022-03-04 10:38:49.698,10
503,10466,0.72,-0.64,-0.95,44.6,2022-03-04 10:38:49.798,10
504,10486,1.01,-0.74,1.15,44.6,2022-03-04 10:38:49.898,10
505,10506,0.51,-0.63,-0.69,44.6,2022-03-04 10:38:49.997,10
506,10526,0.79,-0.57,-0.75,44.6,2022-03-04 10:38:50.094,10
507,10550,0.29,-0.8,0.71,45.0,2022-03-04 10:38:50.194,10
508,10570,-0.88,-0.64,-0.69,45.0,2022-03-04 10:38:50.294,10
509,10590,0.67,-0.61,-1.11,45.0,2022-03-04 10:38:50.393,10
510,10610,0.57,-0.83,-1.05,45.0,2022-03-04 10:38:50.491,10
511,10632,0.82,-0.96,0.81,45.0,2022-03-04 10:38:50.590,10
512,10652,-0.69,-0.81,0.69,45.0,2022-03-04 10:38:50.690,10
513,10672,0.65,-0.81,-0.85,45.0,2022-03-04 10:38:50.789,10
514,10694,0.83,-0.83,0.9,45.0,2022-03-04 10:38:50.898,10
515,10714,0.35,-0.84,-1.12,45.0,2022-03-04 10:38:50.998,10
516,10734,0.46,-0.77,0.87,45.0,2022-03-04 10:38:51.098,10
517,10758,0.34,-0.83,-0.7,45.4,2022-03-04 10:38:51.197,10
518,10778,0.98,-0.7,-0.76,45.4,2022-03-04 10:38:51.296,10
519,10798,0.75,-0.7,-0.69,45.4,2022-03-04 10:38:51.397,10
520,10818,0.82,-0.61,-0.65,45.4,2022-03-04 10:38:51.496,10
521,10840,-0.55,-0.85,1.04,45.4,2022-03-04 10:38:51.593,10
522,10860,0.54,-0.76,-0.66,45.4,2022-03-04 10:38:51.693,10
523,10880,-0.78,-1.03,0.84,45.4,2022-03-04 10:38:51.791,10
524,10900,0.63,-0.84,-0.72,45.4,2022-03-04 10:38:51.891,10
525,10920,-0.98,-0.74,-1.04,45.4,2022-03-04 10:38:51.990,5
526,10940,-0.99,-0.59,-1.2,45.4,2022-03-04 10:38:52.090,5
527,10962,0.65,-0.62,1.02,45.4,2022-03-04 10:38:52.199,5
528,10984,0.52,-0.73,-0.78,45.7,2022-03-04 10:38:52.288,5
529,11006,0.59,-1.02,-0.56,45.7,2022-03-04 10:38:52.397,5
530,11026,-0.42,-1.1,0.46,45.7,2022-03-04 10:38:52.497,5
531,11048,0.58,-1.44,-0.71,45.7,2022-03-04 10:38:52.597,5
532,11068,0.39,-1.16,0.75,45.7,2022-03-04 10:38:52.696,5
533,11088,-0.78,-0.99,-0.81,45.7,2022-03-04 10:38:52.796,5
534,11108,0.52,-0.84,-0.79,45.7,2022-03-04 10:38:52.896,5
535,11128,0.56,-1.02,-0.73,45.7,2022-03-04 10:38:52.998,5
536,11148,0.62,-1.42,-0.58,45.7,2022-03-04 10:38:53.092,5
537,11172,-0.43,-1.18,-0.7,45.7,2022-03-04 10:38:53.192,5
538,11192,0.53,-1.21,-0.65,45.0,2022-03-04 10:38:53.290,5
539,11212,0.38,-1.4,-0.48,45.0,2022-03-04 10:38:53.390,5
540,11234,0.54,-1.72,0.39,45.0,2022-03-04 10:38:53.499,5
541,11254,0.57,-1.97,-0.96,45.0,2022-03-04 10:38:53.590,5
542,11276,0.85,-1.99,1.04,45.0,2022-03-04 10:38:53.699,5
543,11296,0.47,-2.04,-0.58,45.0,2022-03-04 10:38:53.797,5
544,11316,0.62,-1.93,-0.48,45.0,2022-03-04 10:38:53.897,5
545,11336,0.57,-1.94,-0.58,45.0,2022-03-04 10:38:53.998,5
546,11356,0.67,-2.21,-1.12,45.0,2022-03-04 10:38:54.096,5
547,11380,0.66,-1.95,-0.51,45.0,2022-03-04 10:38:54.195,5
548,11400,0.66,-2.23,-0.53,42.8,2022-03-04 10:38:54.295,5
549,11420,0.67,-2.1,-0.75,42.8,2022-03-04 10:38:54.394,5
550,11440,0.86,-2.22,-1.11,42.8,2022-03-04 10:38:54.491,5
551,11462,0.99,-1.97,0.74,42.8,2022-03-04 10:38:54.591,5
552,11482,0.8,-2.04,0.81,42.8,2022-03-04 10:38:54.690,5
553,11502,0.71,-2.36,-0.81,42.8,2022-03-04 10:38:54.790,5
554,11524,0.87,-2.33,-0.84,42.8,2022-03-04 10:38:54.899,5
555,11544,0.71,-2.43,-0.54,42.8,2022-03-04 10:38:54.998,5
556,11562,0.83,-2.26,0.63,42.8,2022-03-04 10:38:55.088,5
557,11588,0.66,-2.2,-0.82,42.8,2022-03-04 10:38:55.197,5
558,11608,0.85,-2.27,-0.79,38.5,2022-03-04 10:38:55.298,5
559,11628,0.91,-2.47,-1.27,38.5,2022-03-04 10:38:55.397,5
560,11648,1.13,-2.5,0.78,38.5,2022-03-04 10:38:55.495,5
561,11670,1.15,-2.29,-1.05,38.5,2022-03-04 10:38:55.595,5
562,11690,0.77,-2.39,1.11,38.5,2022-03-04 10:38:55.694,5
563,11710,0.99,-2.47,-0.95,38.5,2022-03-04 10:38:55.795,5
564,11730,0.79,-2.43,-2.61,38.5,2022-03-04 10:38:55.893,5
565,11750,0.89,-2.17,0.86,38.5,2022-03-04 10:38:55.993,5
566,11770,1.16,-2.36,1.08,38.5,2022-03-04 10:38:56.097,5
567,11792,0.88,-2.42,-0.89,38.5,2022-03-04 10:38:56.191,5
568,11816,0.7,-2.27,-1.16,32.8,2022-03-04 10:38:56.298,5
569,11836,0.35,-2.19,0.45,32.8,2022-03-04 10:38:56.397,5
570,11856,0.27,-2.07,-0.42,32.8,2022-03-04 10:38:56.497,5
571,11878,0.43,-2.01,-0.63,32.8,2022-03-04 10:38:56.597,5
572,11898,0.58,-2.12,0.65,32.8,2022-03-04 10:38:56.696,5
573,11918,0.51,-2.14,0.64,32.8,2022-03-04 10:38:56.795,5
574,11938,0.28,-2.01,-0.69,32.8,2022-03-04 10:38:56.894,5
575,11958,0.28,-2.13,-0.83,32.8,2022-03-04 10:38:56.993,5
576,11978,0.59,-2.0,0.41,32.8,2022-03-04 10:38:57.094,5
577,12002,0.44,-2.01,0.51,32.8,2022-03-04 10:38:57.192,5
578,12022,0.61,-1.96,-0.51,25.6,2022-03-04 10:38:57.292,5
579,12042,0.27,-1.89,-0.43,25.6,2022-03-04 10:38:57.392,5
580,12062,0.44,-1.79,-0.59,25.6,2022-03-04 10:38:57.489,5
581,12086,-0.3,-1.79,-0.95,25.6,2022-03-04 10:38:57.599,5
582,12106,0.32,-1.9,0.47,25.6,2022-03-04 10:38:57.698,5
583,12126,0.24,-1.8,0.26,25.6,2022-03-04 10:38:57.797,5
584,12146,0.25,-1.63,-0.56,25.6,2022-03-04 10:38:57.897,5
585,12166,0.4,-1.72,-0.57,25.6,2022-03-04 10:38:57.996,5
586,12186,0.16,-1.62,-0.4,25.6,2022-03-04 10:38:58.095,5
587,12210,0.3,-1.64,-0.44,25.6,2022-03-04 10:38:58.197,5
588,12230,0.37,-1.55,-0.4,17.6,2022-03-04 10:38:58.294,5
589,12250,0.33,-1.54,-0.21,17.6,2022-03-04 10:38:58.393,5
590,12270,0.39,-1.5,-0.27,17.6,2022-03-04 10:38:58.493,5
591,12292,-0.19,-1.47,-0.55,17.6,2022-03-04 10:38:58.592,5
592,12312,-0.27,-1.43,-0.57,17.6,2022-03-04 10:38:58.692,5
593,12332,0.25,-1.41,-0.41,17.6,2022-03-04 10:38:58.791,5
594,12354,0.38,-1.25,-0.22,17.6,2022-03-04 10:38:58.899,5
595,12374,0.29,-1.24,-0.43,17.6,2022-03-04 10:38:58.998,5
596,12392,0.14,-1.26,-0.34,17.6,2022-03-04 10:38:59.090,5
597,12414,0.3,-1.23,-0.32,17.6,2022-03-04 10:38:59.199,5
598,12438,0.21,-1.19,-0.29,17.6,2022-03-04 10:38:59.296,5
599,12458,0.19,-1.05,-0.43,9.4,2022-03-04 10:38:59.395,5
600,12478,0.12,-0.92,-0.4,9.4,2022-03-04 10:38:59.494,5
601,12500,0.08,-0.57,-0.35,9.4,2022-03-04 10:38:59.594,5
602,12520,-0.16,-0.48,-0.26,9.4,2022-03-04 10:38:59.695,5
603,12540,-0.11,-0.48,-0.28,9.4,2022-03-04 10:38:59.792,5
604,12560,0.13,-0.43,-0.2,9.4,2022-03-04 10:38:59.891,5
605,12580,0.14,-0.46,-0.21,9.4,2022-03-04 10:38:59.993,5
606,12600,-0.18,0.43,-0.2,9.4,2022-03-04 10:39:00.091,5
607,12624,-0.38,1.25,0.47,9.4,2022-03-04 10:39:00.192,5
608,12646,-0.28,1.83,-0.16,0.4,2022-03-04 10:39:00.299,5
609,12666,-0.3,1.95,-0.35,0.4,2022-03-04 10:39:00.399,5
610,12686,-0.32,1.91,-0.37,0.4,2022-03-04 10:39:00.497,0
611,12708,-0.34,1.37,-0.24,0.4,2022-03-04 10:39:00.596,0
612,12726,-0.27,1.14,0.14,0.4,2022-03-04 10:39:00.686,0
613,12748,-0.27,1.34,-0.17,0.4,2022-03-04 10:39:00.795,0
614,12768,-0.22,1.47,-0.15,0.4,2022-03-04 10:39:00.895,0
615,12788,0.36,1.61,0.98,0.4,2022-03-04 10:39:00.995,0
616,12808,-0.34,1.35,-0.43,0.4,2022-03-04 10:39:01.094,0
617,12822,-0.48,1.68,1.12,2.9,2022-03-04 10:39:01.163,0
