,LineNumber,Accel_X,Accel_Y,Accel_Z,Velocity,RealTime,Label
0,22,-0.14,0.13,-0.23,0.0,2022-03-04 10:47:23.494,0
1,44,0.13,0.13,-0.24,0.0,2022-03-04 10:47:23.593,0
2,64,-0.28,0.11,-0.21,0.0,2022-03-04 10:47:23.692,0
3,84,0.4,0.12,-0.33,0.0,2022-03-04 10:47:23.791,0
4,104,-0.25,0.08,-0.29,0.0,2022-03-04 10:47:23.891,0
5,124,0.11,0.11,-0.25,0.0,2022-03-04 10:47:23.990,0
6,144,-0.17,0.12,-0.22,0.0,2022-03-04 10:47:24.089,0
7,168,-0.17,0.14,-0.17,0.0,2022-03-04 10:47:24.188,0
8,190,0.1,0.11,-0.24,0.0,2022-03-04 10:47:24.298,0
9,210,0.11,0.1,-0.25,0.0,2022-03-04 10:47:24.398,0
10,230,-0.12,0.09,-0.19,0.0,2022-03-04 10:47:24.497,0
11,252,-0.12,0.13,-0.24,0.0,2022-03-04 10:47:24.595,0
12,272,0.12,0.08,-0.27,0.0,2022-03-04 10:47:24.695,0
13,292,-0.13,0.12,-0.18,0.0,2022-03-04 10:47:24.794,0
14,312,-0.13,-0.08,-0.2,0.0,2022-03-04 10:47:24.893,0
15,332,-0.23,0.26,-0.36,0.0,2022-03-04 10:47:24.993,0
16,352,0.12,0.14,-0.25,0.0,2022-03-04 10:47:25.094,0
17,376,0.13,0.08,-0.2,0.0,2022-03-04 10:47:25.193,0
18,396,-0.54,0.23,-0.88,0.0,2022-03-04 10:47:25.290,0
19,416,-0.2,0.09,-0.34,0.0,2022-03-04 10:47:25.389,0
20,436,0.13,-0.07,-0.3,0.0,2022-03-04 10:47:25.489,0
21,460,0.17,0.09,-0.41,0.0,2022-03-04 10:47:25.599,2
22,480,-0.18,0.11,-0.41,0.0,2022-03-04 10:47:25.698,2
23,500,-0.23,0.25,-0.47,0.0,2022-03-04 10:47:25.797,2
24,520,-0.34,0.15,-0.45,0.0,2022-03-04 10:47:25.899,2
25,540,-0.32,0.27,-0.45,0.0,2022-03-04 10:47:25.996,2
26,560,-0.49,0.55,-0.29,0.0,2022-03-04 10:47:26.095,2
27,582,-0.41,0.54,-0.34,0.0,2022-03-04 10:47:26.196,2
28,604,-0.51,0.99,-0.41,0.0,2022-03-04 10:47:26.294,2
29,624,-0.45,1.51,-0.39,0.0,2022-03-04 10:47:26.392,2
30,644,-0.54,1.81,-0.31,0.0,2022-03-04 10:47:26.491,2
31,666,-0.76,1.96,-0.71,0.0,2022-03-04 10:47:26.591,2
32,686,-0.79,1.98,-0.63,0.0,2022-03-04 10:47:26.690,2
33,708,-0.79,2.13,-0.88,0.0,2022-03-04 10:47:26.799,2
34,728,-0.81,2.11,1.13,0.0,2022-03-04 10:47:26.899,2
35,746,-1.0,2.22,-0.94,0.0,2022-03-04 10:47:26.988,2
36,766,-0.71,2.39,-0.93,0.0,2022-03-04 10:47:27.087,2
37,792,-1.1,2.64,1.13,0.0,2022-03-04 10:47:27.196,2
38,812,-1.09,2.65,-1.19,0.0,2022-03-04 10:47:27.295,2
39,832,-0.71,2.78,-1.3,0.0,2022-03-04 10:47:27.395,2
40,852,-1.02,2.83,-1.54,0.0,2022-03-04 10:47:27.494,2
41,874,-0.74,2.99,-1.01,0.0,2022-03-04 10:47:27.594,2
42,894,-1.21,3.17,-1.04,0.0,2022-03-04 10:47:27.692,2
43,914,-0.89,2.98,-1.14,0.0,2022-03-04 10:47:27.792,2
44,934,-0.73,3.11,-0.96,0.0,2022-03-04 10:47:27.891,2
45,954,-1.04,3.05,-0.82,0.0,2022-03-04 10:47:27.990,2
46,974,-0.72,2.66,-0.84,0.0,2022-03-04 10:47:28.090,2
47,996,0.67,0.96,-0.65,0.0,2022-03-04 10:47:28.199,2
48,1020,0.52,0.97,0.35,11.5,2022-03-04 10:47:28.299,2
49,1040,-0.52,1.84,-0.42,11.5,2022-03-04 10:47:28.398,2
50,1060,0.42,1.58,-0.51,11.5,2022-03-04 10:47:28.498,2
51,1082,0.34,0.76,-0.48,11.5,2022-03-04 10:47:28.596,2
52,1102,0.5,0.67,-0.38,11.5,2022-03-04 10:47:28.699,2
53,1122,-0.47,1.24,-0.44,11.5,2022-03-04 10:47:28.794,2
54,1142,0.4,1.27,-0.75,11.5,2022-03-04 10:47:28.894,2
55,1162,0.33,1.02,-0.6,11.5,2022-03-04 10:47:28.993,2
56,1182,0.35,0.75,0.54,11.5,2022-03-04 10:47:29.093,2
57,1206,-0.17,1.48,-0.82,14.4,2022-03-04 10:47:29.192,2
58,1226,-0.52,1.86,1.02,14.4,2022-03-04 10:47:29.290,2
59,1246,-0.45,1.39,-0.52,14.4,2022-03-04 10:47:29.390,2
60,1266,0.33,0.92,-0.75,14.4,2022-03-04 10:47:29.489,2
61,1290,-0.51,1.08,-0.53,14.4,2022-03-04 10:47:29.599,2
62,1310,-0.4,1.23,-0.58,14.4,2022-03-04 10:47:29.699,2
63,1330,0.47,0.75,0.57,14.4,2022-03-04 10:47:29.799,2
64,1350,0.45,0.79,-0.44,14.4,2022-03-04 10:47:29.897,2
65,1370,-0.32,0.9,-0.42,14.4,2022-03-04 10:47:29.997,2
66,1390,-0.67,0.9,0.36,14.4,2022-03-04 10:47:30.097,2
67,1412,0.56,0.64,-0.76,18.7,2022-03-04 10:47:30.198,2
68,1434,-0.62,1.16,-1.2,18.7,2022-03-04 10:47:30.293,2
69,1454,-0.97,1.1,-1.11,18.7,2022-03-04 10:47:30.392,2
70,1474,0.76,1.08,0.98,18.7,2022-03-04 10:47:30.492,2
71,1496,0.77,0.99,1.07,18.7,2022-03-04 10:47:30.591,2
72,1516,-0.79,0.86,-1.45,18.7,2022-03-04 10:47:30.691,2
73,1536,-0.92,0.78,-0.75,18.7,2022-03-04 10:47:30.789,2
74,1558,1.06,0.68,-0.56,18.7,2022-03-04 10:47:30.899,2
75,1578,-1.0,0.56,-1.57,18.7,2022-03-04 10:47:30.999,2
76,1598,-0.68,0.69,-1.16,18.7,2022-03-04 10:47:31.098,2
77,1622,0.61,0.68,1.03,22.7,2022-03-04 10:47:31.196,2
78,1642,-0.76,0.43,-0.79,22.7,2022-03-04 10:47:31.296,2
79,1662,0.55,-0.92,-1.07,22.7,2022-03-04 10:47:31.396,2
80,1682,0.6,-0.93,-1.28,22.7,2022-03-04 10:47:31.496,2
81,1704,0.85,-0.91,0.42,22.7,2022-03-04 10:47:31.596,2
82,1724,0.81,-0.79,1.02,22.7,2022-03-04 10:47:31.693,2
83,1744,0.81,-0.78,-0.37,22.7,2022-03-04 10:47:31.797,2
84,1764,0.27,-0.92,-0.67,22.7,2022-03-04 10:47:31.891,2
85,1784,0.33,-1.16,0.62,22.7,2022-03-04 10:47:31.990,2
86,1804,0.42,-0.82,-0.58,22.7,2022-03-04 10:47:32.090,2
87,1830,-0.5,-0.72,-1.04,23.8,2022-03-04 10:47:32.199,2
88,1850,0.62,0.61,0.73,23.8,2022-03-04 10:47:32.299,2
89,1870,0.81,1.14,0.93,23.8,2022-03-04 10:47:32.398,2
90,1890,0.42,1.05,-0.9,23.8,2022-03-04 10:47:32.497,2
91,1912,0.5,-0.9,-1.32,23.8,2022-03-04 10:47:32.597,2
92,1932,-1.45,2.7,1.39,23.8,2022-03-04 10:47:32.696,2
93,1952,0.96,1.26,0.95,23.8,2022-03-04 10:47:32.795,2
94,1972,0.52,1.62,0.9,23.8,2022-03-04 10:47:32.895,2
95,1992,-0.55,1.21,-1.39,23.8,2022-03-04 10:47:32.995,2
96,2012,-0.56,0.88,-1.85,23.8,2022-03-04 10:47:33.094,2
97,2036,-0.74,1.27,-1.32,26.6,2022-03-04 10:47:33.194,2
98,2056,0.55,1.15,0.89,26.6,2022-03-04 10:47:33.291,2
99,2076,-0.67,1.55,-1.99,26.6,2022-03-04 10:47:33.390,2
100,2098,-0.63,1.8,-1.99,26.6,2022-03-04 10:47:33.499,2
101,2120,0.63,1.43,1.9,26.6,2022-03-04 10:47:33.599,2
102,2140,-0.79,1.58,1.5,26.6,2022-03-04 10:47:33.698,2
103,2160,-0.75,1.3,-2.42,26.6,2022-03-04 10:47:33.797,2
104,2180,-0.89,1.34,-1.48,26.6,2022-03-04 10:47:33.897,2
105,2200,-0.75,1.55,1.99,26.6,2022-03-04 10:47:33.996,2
106,2220,0.56,1.12,-1.25,26.6,2022-03-04 10:47:34.098,2
107,2244,-0.7,0.47,-1.92,32.0,2022-03-04 10:47:34.195,2
108,2264,0.55,0.53,1.35,32.0,2022-03-04 10:47:34.294,2
109,2284,0.96,-0.67,1.38,32.0,2022-03-04 10:47:34.394,2
110,2304,1.15,0.53,-1.08,32.0,2022-03-04 10:47:34.494,2
111,2326,1.23,0.47,-1.67,32.0,2022-03-04 10:47:34.594,2
112,2346,1.08,0.79,-1.74,32.0,2022-03-04 10:47:34.691,2
113,2368,0.87,0.64,-1.31,32.0,2022-03-04 10:47:34.799,2
114,2388,-0.75,0.98,1.21,32.0,2022-03-04 10:47:34.899,2
115,2408,1.08,0.59,-1.19,32.0,2022-03-04 10:47:34.999,2
116,2426,-0.49,0.39,0.74,32.0,2022-03-04 10:47:35.087,2
117,2452,-0.66,0.52,0.72,35.6,2022-03-04 10:47:35.196,2
118,2472,-0.64,0.43,-1.01,35.6,2022-03-04 10:47:35.296,2
119,2492,-0.59,0.34,0.42,35.6,2022-03-04 10:47:35.395,2
120,2512,-1.28,-0.26,-0.51,35.6,2022-03-04 10:47:35.494,2
121,2534,-0.56,-0.92,-0.68,35.6,2022-03-04 10:47:35.594,2
122,2554,0.59,-1.01,-0.5,35.6,2022-03-04 10:47:35.694,2
123,2574,0.68,-1.04,-0.73,35.6,2022-03-04 10:47:35.794,2
124,2594,-0.81,-0.92,-0.63,35.6,2022-03-04 10:47:35.893,2
125,2614,-0.49,-1.23,1.26,35.6,2022-03-04 10:47:35.991,2
126,2634,-0.93,-0.84,-0.86,35.6,2022-03-04 10:47:36.090,2
127,2660,0.68,-0.93,-0.77,37.4,2022-03-04 10:47:36.199,2
128,2680,0.52,0.75,0.74,37.4,2022-03-04 10:47:36.298,2
129,2700,0.67,-1.36,-0.7,37.4,2022-03-04 10:47:36.398,2
130,2720,-0.71,2.17,1.24,37.4,2022-03-04 10:47:36.497,2
131,2742,0.69,-0.94,-0.91,37.4,2022-03-04 10:47:36.596,2
132,2762,-1.32,0.5,0.57,37.4,2022-03-04 10:47:36.696,2
133,2782,0.66,-0.62,1.12,37.4,2022-03-04 10:47:36.795,2
134,2802,0.45,-0.56,-0.76,37.4,2022-03-04 10:47:36.895,2
135,2822,1.26,-0.43,0.97,37.4,2022-03-04 10:47:36.994,2
136,2842,1.18,-0.56,1.53,37.4,2022-03-04 10:47:37.096,2
137,2866,-1.06,0.48,-1.54,39.6,2022-03-04 10:47:37.193,2
138,2886,-0.96,0.39,-1.22,39.6,2022-03-04 10:47:37.292,2
139,2906,-1.51,0.65,1.47,39.6,2022-03-04 10:47:37.392,2
140,2928,-0.56,0.4,-1.68,39.6,2022-03-04 10:47:37.499,2
141,2950,1.44,0.39,1.18,39.6,2022-03-04 10:47:37.599,2
142,2970,-0.88,0.68,1.17,39.6,2022-03-04 10:47:37.698,2
143,2990,-0.64,0.77,-1.44,39.6,2022-03-04 10:47:37.798,2
144,3010,-0.9,0.56,2.02,39.6,2022-03-04 10:47:37.896,2
145,3030,1.27,0.54,-2.16,39.6,2022-03-04 10:47:37.996,2
146,3050,-1.05,-0.31,1.6,39.6,2022-03-04 10:47:38.099,2
147,3074,-0.65,0.49,1.81,42.1,2022-03-04 10:47:38.196,2
148,3094,-1.22,0.65,-1.63,42.1,2022-03-04 10:47:38.294,2
149,3114,-1.6,0.48,-1.02,42.1,2022-03-04 10:47:38.393,2
150,3134,0.68,-0.36,-0.42,42.1,2022-03-04 10:47:38.493,2
151,3156,-0.75,-0.36,-0.98,42.1,2022-03-04 10:47:38.593,2
152,3176,0.42,-0.6,-0.97,42.1,2022-03-04 10:47:38.691,2
153,3196,0.66,-0.58,-0.54,42.1,2022-03-04 10:47:38.792,2
154,3218,0.45,-0.53,1.44,42.1,2022-03-04 10:47:38.899,2
155,3238,-0.58,-0.46,1.08,42.1,2022-03-04 10:47:38.998,2
156,3256,-1.32,-0.47,-0.69,42.1,2022-03-04 10:47:39.087,2
157,3282,-0.46,-0.99,-1.94,44.3,2022-03-04 10:47:39.197,2
158,3302,0.99,-0.6,0.72,44.3,2022-03-04 10:47:39.297,2
159,3322,0.78,-0.59,0.72,44.3,2022-03-04 10:47:39.396,2
160,3342,0.82,-1.1,0.55,44.3,2022-03-04 10:47:39.495,2
161,3364,0.63,-0.93,-0.59,44.3,2022-03-04 10:47:39.594,2
162,3384,0.81,-1.01,-0.64,44.3,2022-03-04 10:47:39.693,2
163,3404,0.67,-0.9,-0.64,44.3,2022-03-04 10:47:39.794,2
164,3424,0.65,-1.28,-2.08,44.3,2022-03-04 10:47:39.894,2
165,3444,1.3,-1.29,-2.02,44.3,2022-03-04 10:47:39.991,2
166,3464,1.8,-1.6,1.41,44.3,2022-03-04 10:47:40.092,2
167,3490,1.15,-1.82,-1.33,44.6,2022-03-04 10:47:40.199,10
168,3510,1.17,-1.07,-1.79,44.6,2022-03-04 10:47:40.299,10
169,3530,0.94,-1.11,-1.07,44.6,2022-03-04 10:47:40.398,10
170,3550,1.33,-0.37,-0.86,44.6,2022-03-04 10:47:40.498,10
171,3572,1.4,-0.45,0.65,44.6,2022-03-04 10:47:40.596,10
172,3592,1.06,-0.51,-0.69,44.6,2022-03-04 10:47:40.697,10
173,3612,0.83,-0.44,-0.92,44.6,2022-03-04 10:47:40.795,10
174,3632,0.69,0.36,-0.48,44.6,2022-03-04 10:47:40.895,10
175,3652,-0.99,-0.4,0.36,44.6,2022-03-04 10:47:40.994,10
176,3672,1.25,-0.44,-0.93,44.6,2022-03-04 10:47:41.093,10
177,3696,0.59,-0.32,0.92,46.1,2022-03-04 10:47:41.192,10
178,3716,1.31,-0.7,1.09,46.1,2022-03-04 10:47:41.293,10
179,3736,0.81,-0.28,-1.25,46.1,2022-03-04 10:47:41.393,10
180,3756,0.59,0.46,-0.83,46.1,2022-03-04 10:47:41.491,10
181,3780,0.65,-0.38,-0.49,46.1,2022-03-04 10:47:41.599,10
182,3798,0.68,-0.3,-0.96,46.1,2022-03-04 10:47:41.689,10
183,3820,0.73,-0.58,0.77,46.1,2022-03-04 10:47:41.798,10
184,3840,-0.5,-0.62,-0.79,46.1,2022-03-04 10:47:41.897,10
185,3860,-1.21,-0.67,-1.11,46.1,2022-03-04 10:47:41.996,10
186,3880,-0.6,-0.74,0.77,46.1,2022-03-04 10:47:42.095,10
187,3904,-0.32,-0.75,-1.47,48.2,2022-03-04 10:47:42.197,10
188,3924,-0.58,-0.91,-0.71,48.2,2022-03-04 10:47:42.294,10
189,3944,-0.67,-0.62,-0.72,48.2,2022-03-04 10:47:42.393,10
190,3964,0.37,-0.64,0.89,48.2,2022-03-04 10:47:42.492,10
191,3986,-0.8,-0.68,-0.88,48.2,2022-03-04 10:47:42.594,10
192,4006,0.56,-0.79,0.63,48.2,2022-03-04 10:47:42.691,10
193,4026,-0.57,-0.62,-0.84,48.2,2022-03-04 10:47:42.790,10
194,4048,-0.46,-0.72,-1.76,48.2,2022-03-04 10:47:42.899,10
195,4068,-0.73,-0.7,-1.26,48.2,2022-03-04 10:47:42.998,10
196,4088,-0.67,-0.72,0.49,48.2,2022-03-04 10:47:43.098,10
197,4112,-0.67,-0.75,0.76,49.3,2022-03-04 10:47:43.198,10
198,4132,0.4,-0.76,0.61,49.3,2022-03-04 10:47:43.296,10
199,4152,-0.59,-0.85,-0.42,49.3,2022-03-04 10:47:43.396,10
200,4172,0.49,-0.9,-0.8,49.3,2022-03-04 10:47:43.495,10
201,4194,0.54,-1.19,-0.83,49.3,2022-03-04 10:47:43.594,10
202,4214,-0.33,-0.92,-0.66,49.3,2022-03-04 10:47:43.693,10
203,4234,-0.61,-0.98,-0.48,49.3,2022-03-04 10:47:43.794,10
204,4254,-0.67,-0.8,0.41,49.3,2022-03-04 10:47:43.892,10
205,4274,-0.43,-0.72,-1.17,49.3,2022-03-04 10:47:43.992,10
206,4294,-0.76,-1.08,0.88,49.3,2022-03-04 10:47:44.093,5
207,4314,0.82,-1.04,0.95,49.3,2022-03-04 10:47:44.190,5
208,4340,0.49,-1.08,-0.73,49.3,2022-03-04 10:47:44.299,5
209,4360,-0.42,-1.2,-1.39,49.0,2022-03-04 10:47:44.398,5
210,4380,0.98,-1.4,1.51,49.0,2022-03-04 10:47:44.498,5
211,4402,0.44,-1.62,1.92,49.0,2022-03-04 10:47:44.597,5
212,4422,0.66,-1.57,-1.49,49.0,2022-03-04 10:47:44.696,5
213,4442,0.74,-1.46,0.7,49.0,2022-03-04 10:47:44.795,5
214,4462,0.37,-1.34,0.47,49.0,2022-03-04 10:47:44.894,5
215,4482,0.65,-1.34,-0.79,49.0,2022-03-04 10:47:44.994,5
216,4502,0.64,-1.57,-1.04,49.0,2022-03-04 10:47:45.093,5
217,4526,0.7,-1.7,-0.74,49.0,2022-03-04 10:47:45.194,5
218,4546,0.68,-1.7,-0.73,47.5,2022-03-04 10:47:45.291,5
219,4566,0.87,-1.71,-0.36,47.5,2022-03-04 10:47:45.390,5
220,4586,0.73,-1.67,-1.1,47.5,2022-03-04 10:47:45.490,5
221,4608,0.83,-1.68,-0.68,47.5,2022-03-04 10:47:45.590,5
222,4628,0.86,-1.35,-0.79,47.5,2022-03-04 10:47:45.689,5
223,4650,0.79,-1.22,-0.67,47.5,2022-03-04 10:47:45.798,5
224,4670,0.81,-1.11,-0.88,47.5,2022-03-04 10:47:45.898,5
225,4690,0.95,-1.42,-0.88,47.5,2022-03-04 10:47:45.996,5
226,4710,0.72,-1.39,-0.49,47.5,2022-03-04 10:47:46.098,5
227,4734,1.0,-1.54,0.67,47.5,2022-03-04 10:47:46.195,5
228,4754,0.6,-1.59,-0.74,44.6,2022-03-04 10:47:46.295,5
229,4774,0.52,-1.69,-0.86,44.6,2022-03-04 10:47:46.393,5
230,4794,0.79,-1.64,-0.6,44.6,2022-03-04 10:47:46.493,5
231,4816,0.73,-1.43,0.53,44.6,2022-03-04 10:47:46.592,5
232,4836,1.11,-1.68,-0.8,44.6,2022-03-04 10:47:46.692,5
233,4856,0.49,-1.9,-0.88,44.6,2022-03-04 10:47:46.791,5
234,4876,-0.56,-1.65,-0.73,44.6,2022-03-04 10:47:46.891,5
235,4898,-0.78,-1.62,0.55,44.6,2022-03-04 10:47:46.999,5
236,4918,0.76,-1.7,-0.79,44.6,2022-03-04 10:47:47.098,5
237,4942,0.37,-1.56,-0.61,44.6,2022-03-04 10:47:47.198,5
238,4962,0.78,-1.5,0.67,41.4,2022-03-04 10:47:47.298,5
239,4982,0.44,-1.64,-0.9,41.4,2022-03-04 10:47:47.396,5
240,5002,0.48,-1.69,-0.79,41.4,2022-03-04 10:47:47.495,5
241,5024,0.63,-1.38,-0.68,41.4,2022-03-04 10:47:47.594,5
242,5044,0.8,-1.35,0.79,41.4,2022-03-04 10:47:47.694,5
243,5064,1.22,-1.57,-1.1,41.4,2022-03-04 10:47:47.793,5
244,5084,0.53,-1.43,-0.61,41.4,2022-03-04 10:47:47.892,5
245,5104,0.87,-1.36,0.81,41.4,2022-03-04 10:47:47.992,5
246,5124,0.55,-1.4,-0.63,41.4,2022-03-04 10:47:48.092,5
247,5148,0.53,-1.37,-1.28,41.4,2022-03-04 10:47:48.190,5
248,5168,0.76,-1.58,-0.74,37.8,2022-03-04 10:47:48.290,5
249,5190,0.83,-1.4,-0.71,37.8,2022-03-04 10:47:48.398,5
250,5210,0.63,-1.41,-0.55,37.8,2022-03-04 10:47:48.498,5
251,5232,0.74,-1.36,-0.81,37.8,2022-03-04 10:47:48.598,5
252,5252,0.52,-1.55,-0.6,37.8,2022-03-04 10:47:48.696,5
253,5272,0.89,-1.18,-0.61,37.8,2022-03-04 10:47:48.796,5
254,5292,0.88,-1.46,-1.04,37.8,2022-03-04 10:47:48.895,5
255,5312,0.76,-1.3,-0.79,37.8,2022-03-04 10:47:48.994,5
256,5332,0.64,-1.18,-0.57,37.8,2022-03-04 10:47:49.093,5
257,5356,0.98,-1.41,-0.65,37.8,2022-03-04 10:47:49.195,5
258,5376,0.89,-1.11,-0.69,33.5,2022-03-04 10:47:49.292,5
259,5396,1.02,-1.0,-0.68,33.5,2022-03-04 10:47:49.393,5
260,5416,0.91,-1.05,0.49,33.5,2022-03-04 10:47:49.494,5
261,5438,1.31,-1.06,0.45,33.5,2022-03-04 10:47:49.590,5
262,5458,1.17,-0.89,0.51,33.5,2022-03-04 10:47:49.689,5
263,5478,0.71,-0.91,-0.43,33.5,2022-03-04 10:47:49.788,5
264,5500,1.08,-1.04,0.56,33.5,2022-03-04 10:47:49.898,5
265,5520,1.28,-0.96,-0.72,33.5,2022-03-04 10:47:49.997,5
266,5540,1.12,-0.98,-0.55,33.5,2022-03-04 10:47:50.096,5
267,5564,1.26,-0.88,0.51,33.5,2022-03-04 10:47:50.195,5
268,5584,1.2,-0.67,-0.85,29.5,2022-03-04 10:47:50.295,8
269,5602,0.92,0.24,-0.38,29.5,2022-03-04 10:47:50.384,8
270,5624,0.91,0.37,-0.35,29.5,2022-03-04 10:47:50.493,8
271,5646,0.98,0.6,-0.5,29.5,2022-03-04 10:47:50.595,8
272,5666,1.01,0.3,-0.65,29.5,2022-03-04 10:47:50.692,8
273,5686,0.81,0.26,-0.85,29.5,2022-03-04 10:47:50.792,8
274,5706,0.82,0.31,-0.49,29.5,2022-03-04 10:47:50.890,8
275,5728,0.83,0.36,-0.56,29.5,2022-03-04 10:47:50.999,8
276,5746,0.95,0.43,-0.6,29.5,2022-03-04 10:47:51.088,8
277,5772,0.82,0.41,-0.76,29.5,2022-03-04 10:47:51.199,8
278,5792,0.38,0.57,-0.81,27.4,2022-03-04 10:47:51.299,8
279,5812,0.37,0.4,0.76,27.4,2022-03-04 10:47:51.396,8
280,5832,-0.59,0.29,0.44,27.4,2022-03-04 10:47:51.496,8
281,5854,-0.81,0.45,-0.64,27.4,2022-03-04 10:47:51.595,8
282,5874,-1.62,0.48,-0.71,27.4,2022-03-04 10:47:51.694,8
283,5894,-1.72,0.22,-0.84,27.4,2022-03-04 10:47:51.793,8
284,5914,-2.14,-0.35,0.38,27.4,2022-03-04 10:47:51.894,8
285,5934,-2.43,-0.34,-0.58,27.4,2022-03-04 10:47:51.992,8
286,5954,-2.44,-0.45,-0.76,27.4,2022-03-04 10:47:52.091,8
287,5978,-2.5,-0.51,-0.49,27.4,2022-03-04 10:47:52.190,8
288,5998,-3.27,-0.64,0.51,26.3,2022-03-04 10:47:52.290,8
289,6018,-3.67,-1.01,0.7,26.3,2022-03-04 10:47:52.389,8
290,6040,-3.81,-1.08,0.43,26.3,2022-03-04 10:47:52.499,8
291,6062,-3.64,-1.04,-0.7,26.3,2022-03-04 10:47:52.598,8
292,6082,-3.63,-1.17,-0.46,26.3,2022-03-04 10:47:52.699,8
293,6102,-3.81,-1.13,0.72,26.3,2022-03-04 10:47:52.796,8
294,6122,-3.45,-1.06,0.61,26.3,2022-03-04 10:47:52.895,8
295,6142,-3.68,-1.23,-0.45,26.3,2022-03-04 10:47:52.994,8
296,6162,-3.71,-1.46,0.34,26.3,2022-03-04 10:47:53.094,8
297,6182,-3.58,-1.54,-0.57,26.3,2022-03-04 10:47:53.194,8
298,6206,-3.75,-1.58,0.59,26.3,2022-03-04 10:47:53.292,8
299,6226,-3.81,-1.62,0.96,25.2,2022-03-04 10:47:53.392,8
300,6246,-3.29,-1.68,-0.34,25.2,2022-03-04 10:47:53.491,8
301,6268,-3.16,-1.56,-0.47,25.2,2022-03-04 10:47:53.590,8
302,6290,-3.24,-1.57,0.61,25.2,2022-03-04 10:47:53.699,8
303,6308,-3.23,-1.58,0.67,25.2,2022-03-04 10:47:53.789,8
304,6328,-2.92,-0.99,0.56,25.2,2022-03-04 10:47:53.887,8
305,6350,-2.95,-0.77,-0.4,25.2,2022-03-04 10:47:53.998,8
306,6370,-3.07,-0.89,-0.7,25.2,2022-03-04 10:47:54.096,8
307,6394,-3.63,-0.87,0.61,25.2,2022-03-04 10:47:54.197,8
308,6414,-3.51,-1.19,0.49,22.0,2022-03-04 10:47:54.295,8
309,6434,-2.97,-0.77,0.47,22.0,2022-03-04 10:47:54.398,8
310,6454,-2.68,-0.82,0.52,22.0,2022-03-04 10:47:54.494,8
311,6476,-2.55,-0.87,-0.63,22.0,2022-03-04 10:47:54.594,8
312,6496,-2.78,-1.12,-0.45,22.0,2022-03-04 10:47:54.692,8
313,6516,-2.93,-1.22,0.89,22.0,2022-03-04 10:47:54.792,8
314,6536,-2.8,-1.32,-0.46,22.0,2022-03-04 10:47:54.890,8
315,6556,-3.2,-1.21,-0.72,22.0,2022-03-04 10:47:54.991,8
316,6576,-2.38,-1.11,-0.41,22.0,2022-03-04 10:47:55.090,8
317,6602,-2.48,-1.17,0.79,22.0,2022-03-04 10:47:55.199,8
318,6622,-2.53,-1.36,0.75,19.8,2022-03-04 10:47:55.298,8
319,6642,-2.62,-1.33,0.46,19.8,2022-03-04 10:47:55.397,8
320,6662,-3.09,-1.43,0.64,19.8,2022-03-04 10:47:55.497,8
321,6684,-2.85,-1.33,0.58,19.8,2022-03-04 10:47:55.596,8
322,6704,-3.0,-1.39,-0.43,19.8,2022-03-04 10:47:55.696,8
323,6724,-2.91,-1.22,0.61,19.8,2022-03-04 10:47:55.794,8
324,6744,-3.23,-1.25,-0.7,19.8,2022-03-04 10:47:55.893,8
325,6764,-3.33,-1.52,-0.56,19.8,2022-03-04 10:47:55.992,8
326,6784,-3.45,-1.73,-0.28,19.8,2022-03-04 10:47:56.092,8
327,6808,-3.52,-1.9,1.0,19.8,2022-03-04 10:47:56.191,8
328,6828,-3.67,-1.83,0.97,17.3,2022-03-04 10:47:56.290,8
329,6850,-3.82,-1.9,-0.63,17.3,2022-03-04 10:47:56.399,8
330,6868,-3.49,-2.03,0.81,17.3,2022-03-04 10:47:56.488,8
331,6892,-4.03,-1.88,0.9,17.3,2022-03-04 10:47:56.598,8
332,6912,-3.49,-1.85,-0.99,17.3,2022-03-04 10:47:56.697,8
333,6932,-3.7,-1.64,1.04,17.3,2022-03-04 10:47:56.798,8
334,6952,-3.71,-2.46,-0.56,17.3,2022-03-04 10:47:56.896,8
335,6972,-4.23,-2.52,0.67,17.3,2022-03-04 10:47:56.996,8
336,6992,-4.29,-1.83,-0.76,17.3,2022-03-04 10:47:57.096,8
337,7016,-3.99,-2.07,-0.6,18.7,2022-03-04 10:47:57.195,8
338,7036,-3.86,-1.97,-0.73,18.7,2022-03-04 10:47:57.292,8
339,7056,-4.06,-1.76,-0.58,18.7,2022-03-04 10:47:57.392,8
340,7076,-4.06,-2.05,-0.63,18.7,2022-03-04 10:47:57.492,8
341,7098,-4.21,-1.87,1.07,18.7,2022-03-04 10:47:57.590,8
342,7118,-4.47,-1.58,0.97,18.7,2022-03-04 10:47:57.690,8
343,7140,-4.14,-1.48,1.68,18.7,2022-03-04 10:47:57.799,8
344,7160,-3.99,-1.61,1.38,18.7,2022-03-04 10:47:57.898,8
345,7180,-3.94,-1.61,-0.94,18.7,2022-03-04 10:47:57.998,8
346,7198,-2.98,-1.22,0.87,18.7,2022-03-04 10:47:58.087,8
347,7224,-2.17,-1.19,-1.21,19.4,2022-03-04 10:47:58.196,8
348,7244,-1.92,-1.17,0.96,19.4,2022-03-04 10:47:58.295,8
349,7264,-1.68,-1.02,1.65,19.4,2022-03-04 10:47:58.395,8
350,7284,-1.36,-1.02,1.37,19.4,2022-03-04 10:47:58.494,8
351,7306,-1.29,-0.86,1.27,19.4,2022-03-04 10:47:58.596,8
352,7326,-1.13,-0.71,0.44,19.4,2022-03-04 10:47:58.695,8
353,7346,-0.76,-0.62,-0.69,19.4,2022-03-04 10:47:58.792,8
354,7366,-0.98,-0.71,-0.77,19.4,2022-03-04 10:47:58.890,8
355,7386,-0.79,-0.59,-0.56,19.4,2022-03-04 10:47:58.990,8
356,7406,-0.83,-0.58,-0.74,19.4,2022-03-04 10:47:59.095,8
357,7432,-0.81,-0.6,0.73,19.4,2022-03-04 10:47:59.198,2
358,7452,0.98,-0.51,-0.68,19.1,2022-03-04 10:47:59.298,2
359,7472,-0.52,-0.37,0.52,19.1,2022-03-04 10:47:59.399,2
360,7492,0.9,-0.28,-0.64,19.1,2022-03-04 10:47:59.496,2
361,7514,0.52,-0.49,0.41,19.1,2022-03-04 10:47:59.596,2
362,7534,0.66,-0.37,-0.84,19.1,2022-03-04 10:47:59.696,2
363,7554,1.22,-0.65,-0.43,19.1,2022-03-04 10:47:59.794,2
364,7574,1.13,-0.64,-0.53,19.1,2022-03-04 10:47:59.896,2
365,7594,0.8,-0.59,0.98,19.1,2022-03-04 10:47:59.994,2
366,7614,0.94,-0.66,-0.92,19.1,2022-03-04 10:48:00.093,2
367,7638,1.32,-0.63,-0.72,23.0,2022-03-04 10:48:00.191,2
368,7658,1.22,-0.65,0.72,23.0,2022-03-04 10:48:00.290,2
369,7678,1.18,-0.68,0.76,23.0,2022-03-04 10:48:00.390,2
370,7700,1.21,-0.5,0.63,23.0,2022-03-04 10:48:00.499,2
371,7722,1.69,-0.74,1.24,23.0,2022-03-04 10:48:00.598,2
372,7742,1.76,-0.5,-1.23,23.0,2022-03-04 10:48:00.698,2
373,7762,1.01,-0.54,-0.83,23.0,2022-03-04 10:48:00.796,2
374,7782,1.5,-0.66,-0.96,23.0,2022-03-04 10:48:00.896,2
375,7802,1.57,-0.58,-1.69,23.0,2022-03-04 10:48:00.995,2
376,7822,1.6,-0.62,-0.74,23.0,2022-03-04 10:48:01.095,2
377,7846,1.6,-0.8,-0.84,26.3,2022-03-04 10:48:01.194,2
378,7866,1.2,-0.63,0.79,26.3,2022-03-04 10:48:01.294,2
379,7886,1.67,-0.6,1.07,26.3,2022-03-04 10:48:01.392,2
380,7906,1.71,-0.61,-0.44,26.3,2022-03-04 10:48:01.493,2
381,7928,1.34,-0.61,-0.64,26.3,2022-03-04 10:48:01.592,2
382,7948,1.57,-0.75,-0.51,26.3,2022-03-04 10:48:01.690,2
383,7970,1.36,-0.53,0.77,26.3,2022-03-04 10:48:01.799,2
384,7990,1.01,-0.58,-0.78,26.3,2022-03-04 10:48:01.899,2
385,8010,1.53,-0.48,-0.66,26.3,2022-03-04 10:48:01.998,2
386,8030,1.39,-0.48,0.47,26.3,2022-03-04 10:48:02.098,2
387,8054,1.5,-0.55,0.87,29.5,2022-03-04 10:48:02.196,2
388,8074,1.66,-0.71,-0.55,29.5,2022-03-04 10:48:02.295,2
389,8094,1.43,-0.72,-1.13,29.5,2022-03-04 10:48:02.395,2
390,8114,0.98,-1.18,-0.97,29.5,2022-03-04 10:48:02.495,2
391,8136,0.93,-1.67,0.45,29.5,2022-03-04 10:48:02.594,2
392,8156,1.06,-1.52,-1.39,29.5,2022-03-04 10:48:02.694,2
393,8176,1.26,-1.62,-0.7,29.5,2022-03-04 10:48:02.792,2
394,8196,1.02,-1.35,0.5,29.5,2022-03-04 10:48:02.892,2
395,8216,0.84,-1.4,0.93,29.5,2022-03-04 10:48:02.993,2
396,8236,-1.04,-1.39,-0.68,29.5,2022-03-04 10:48:03.093,2
397,8259,0.6,-1.39,0.52,30.6,2022-03-04 10:48:03.194,2
398,8282,0.91,-1.34,-0.82,30.6,2022-03-04 10:48:03.298,2
399,8302,0.57,-0.91,-0.66,30.6,2022-03-04 10:48:03.397,2
400,8322,1.05,-0.57,-0.69,30.6,2022-03-04 10:48:03.497,2
401,8344,-0.99,-0.36,-0.75,30.6,2022-03-04 10:48:03.596,2
402,8364,0.83,-0.77,-0.67,30.6,2022-03-04 10:48:03.696,2
403,8384,-0.82,-0.43,-0.58,30.6,2022-03-04 10:48:03.795,2
404,8404,0.53,-0.55,-1.01,30.6,2022-03-04 10:48:03.894,2
405,8424,0.61,-0.69,-0.26,30.6,2022-03-04 10:48:03.993,2
406,8444,0.68,-0.49,0.6,30.6,2022-03-04 10:48:04.093,2
407,8468,0.76,-0.53,-0.98,32.8,2022-03-04 10:48:04.192,2
408,8488,-0.6,-0.45,-0.56,32.8,2022-03-04 10:48:04.291,2
409,8508,-0.74,-0.39,0.86,32.8,2022-03-04 10:48:04.392,2
410,8530,-1.19,-0.61,1.12,32.8,2022-03-04 10:48:04.499,2
411,8552,0.79,-0.54,-0.91,32.8,2022-03-04 10:48:04.598,2
412,8572,-0.51,-0.47,-1.22,32.8,2022-03-04 10:48:04.698,2
413,8592,0.99,0.54,0.78,32.8,2022-03-04 10:48:04.797,2
414,8612,0.97,0.47,1.23,32.8,2022-03-04 10:48:04.898,2
415,8632,-0.87,0.56,-1.16,32.8,2022-03-04 10:48:04.996,2
416,8652,0.97,0.43,-1.01,32.8,2022-03-04 10:48:05.094,2
417,8676,0.51,-0.54,0.72,36.4,2022-03-04 10:48:05.196,2
418,8696,0.44,0.51,-1.11,36.4,2022-03-04 10:48:05.293,2
419,8716,-0.58,0.57,0.68,36.4,2022-03-04 10:48:05.392,2
420,8736,0.59,0.71,1.3,36.4,2022-03-04 10:48:05.493,2
421,8758,0.83,0.47,-1.51,36.4,2022-03-04 10:48:05.593,2
422,8778,-0.96,0.49,-1.61,36.4,2022-03-04 10:48:05.691,2
423,8800,-0.91,0.7,-1.39,36.4,2022-03-04 10:48:05.799,2
424,8820,1.11,0.88,1.52,36.4,2022-03-04 10:48:05.899,2
425,8840,-0.47,0.71,-1.76,36.4,2022-03-04 10:48:05.998,2
426,8860,0.67,0.64,1.44,36.4,2022-03-04 10:48:06.098,2
427,8884,-1.17,-0.63,0.71,40.0,2022-03-04 10:48:06.197,2
428,8904,1.31,0.43,1.37,40.0,2022-03-04 10:48:06.296,2
429,8924,-0.92,0.49,-0.89,40.0,2022-03-04 10:48:06.396,2
430,8944,-1.2,-0.55,-1.25,40.0,2022-03-04 10:48:06.495,2
431,8966,0.73,-0.63,-1.6,40.0,2022-03-04 10:48:06.595,2
432,8986,0.84,-0.8,-0.82,40.0,2022-03-04 10:48:06.693,2
433,9006,1.12,-0.6,-0.95,40.0,2022-03-04 10:48:06.792,2
434,9026,0.99,-0.76,-1.09,40.0,2022-03-04 10:48:06.892,2
435,9046,0.8,-0.49,-0.96,40.0,2022-03-04 10:48:06.992,2
436,9066,0.62,-0.66,0.75,40.0,2022-03-04 10:48:07.090,2
437,9087,1.19,-0.55,0.93,41.0,2022-03-04 10:48:07.191,2
438,9112,0.89,-0.59,-1.56,41.0,2022-03-04 10:48:07.298,2
439,9132,-0.92,-0.54,-1.1,41.0,2022-03-04 10:48:07.398,2
440,9152,0.45,-0.67,-1.23,41.0,2022-03-04 10:48:07.498,2
441,9174,0.97,-0.65,-1.05,41.0,2022-03-04 10:48:07.597,2
442,9194,1.13,-0.56,-0.99,41.0,2022-03-04 10:48:07.695,2
443,9214,-0.84,-0.68,-1.18,41.0,2022-03-04 10:48:07.795,2
444,9234,0.91,-0.94,1.16,41.0,2022-03-04 10:48:07.894,2
445,9254,1.16,-0.7,0.9,41.0,2022-03-04 10:48:07.994,2
446,9274,0.78,-0.63,-1.07,41.0,2022-03-04 10:48:08.093,2
447,9298,0.86,-0.63,1.7,42.8,2022-03-04 10:48:08.192,2
448,9318,-0.92,-0.69,1.36,42.8,2022-03-04 10:48:08.291,2
449,9338,0.51,-0.41,-0.81,42.8,2022-03-04 10:48:08.391,2
450,9360,0.69,-0.61,-0.99,42.8,2022-03-04 10:48:08.499,2
451,9382,0.65,-0.61,1.31,42.8,2022-03-04 10:48:08.599,2
452,9402,1.02,-0.68,1.36,42.8,2022-03-04 10:48:08.698,2
453,9422,0.85,-0.68,-0.86,42.8,2022-03-04 10:48:08.797,2
454,9442,-1.57,-0.38,-0.97,42.8,2022-03-04 10:48:08.896,2
455,9462,0.72,-0.82,1.0,42.8,2022-03-04 10:48:08.996,2
456,9482,-0.64,-0.46,1.69,42.8,2022-03-04 10:48:09.098,2
457,9502,0.57,-0.44,-1.07,42.8,2022-03-04 10:48:09.194,2
458,9526,0.73,-0.66,-1.32,44.3,2022-03-04 10:48:09.294,2
459,9546,-0.47,-0.61,-1.53,44.3,2022-03-04 10:48:09.394,2
460,9566,-0.53,-0.66,0.75,44.3,2022-03-04 10:48:09.493,2
461,9588,0.56,-1.48,0.95,44.3,2022-03-04 10:48:09.591,2
462,9608,0.74,-1.26,-0.87,44.3,2022-03-04 10:48:09.690,2
463,9628,0.77,-1.34,0.62,44.3,2022-03-04 10:48:09.790,2
464,9650,1.02,-1.12,-0.69,44.3,2022-03-04 10:48:09.899,2
465,9670,0.59,-1.32,-1.82,44.3,2022-03-04 10:48:09.999,2
466,9688,1.12,-1.09,-0.96,44.3,2022-03-04 10:48:10.088,2
467,9714,0.76,-1.06,-0.64,44.6,2022-03-04 10:48:10.197,10
468,9734,0.44,-1.55,-0.55,44.6,2022-03-04 10:48:10.296,10
469,9754,-0.86,-0.96,1.08,44.6,2022-03-04 10:48:10.395,10
470,9774,1.02,-0.47,0.46,44.6,2022-03-04 10:48:10.495,10
471,9796,-1.07,-1.22,-0.92,44.6,2022-03-04 10:48:10.597,10
472,9816,1.01,-0.74,1.03,44.6,2022-03-04 10:48:10.693,10
473,9836,-0.4,-0.79,-0.77,44.6,2022-03-04 10:48:10.792,10
474,9856,0.46,-0.58,-0.99,44.6,2022-03-04 10:48:10.892,10
475,9876,-0.74,-0.36,-0.5,44.6,2022-03-04 10:48:10.991,10
476,9896,-0.74,-0.49,-0.61,44.6,2022-03-04 10:48:11.091,10
477,9920,-0.96,-0.62,-0.71,45.7,2022-03-04 10:48:11.191,10
478,9942,-1.25,-0.61,-0.53,45.7,2022-03-04 10:48:11.298,10
479,9962,-0.76,-0.64,0.69,45.7,2022-03-04 10:48:11.398,10
480,9982,-0.54,-0.56,-0.78,45.7,2022-03-04 10:48:11.497,10
481,10004,-0.92,-0.51,1.03,45.7,2022-03-04 10:48:11.597,10
482,10024,0.78,-0.34,0.98,45.7,2022-03-04 10:48:11.696,10
483,10044,-0.94,-0.3,-1.57,45.7,2022-03-04 10:48:11.795,10
484,10064,-0.9,0.35,1.31,45.7,2022-03-04 10:48:11.894,10
485,10084,-0.85,-0.56,-1.19,45.7,2022-03-04 10:48:11.994,10
486,10104,0.58,-0.69,0.99,45.7,2022-03-04 10:48:12.095,10
487,10128,0.74,-0.66,0.97,47.5,2022-03-04 10:48:12.192,10
488,10148,-0.58,-0.89,-0.81,47.5,2022-03-04 10:48:12.292,10
489,10168,-0.65,-0.78,-1.2,47.5,2022-03-04 10:48:12.391,10
490,10188,-0.51,-0.81,-1.18,47.5,2022-03-04 10:48:12.490,10
491,10212,0.45,-0.87,-0.87,47.5,2022-03-04 10:48:12.599,10
492,10232,0.47,-0.84,-0.57,47.5,2022-03-04 10:48:12.698,10
493,10252,0.64,-0.99,0.8,47.5,2022-03-04 10:48:12.798,10
494,10272,-0.53,-1.0,-0.77,47.5,2022-03-04 10:48:12.897,10
495,10292,0.34,-0.87,-0.75,47.5,2022-03-04 10:48:12.996,10
496,10312,0.54,-0.93,-0.69,47.5,2022-03-04 10:48:13.096,10
497,10332,-0.52,-0.95,-0.68,47.5,2022-03-04 10:48:13.196,10
498,10356,0.49,-1.09,-0.43,47.9,2022-03-04 10:48:13.294,10
499,10376,0.61,-1.11,-1.12,47.9,2022-03-04 10:48:13.393,10
500,10396,0.52,-1.22,-0.66,47.9,2022-03-04 10:48:13.493,10
501,10418,-0.41,-1.14,0.54,47.9,2022-03-04 10:48:13.592,10
502,10438,0.68,-1.29,1.31,47.9,2022-03-04 10:48:13.692,10
503,10458,0.65,-1.04,1.02,47.9,2022-03-04 10:48:13.792,10
504,10478,0.51,-1.07,-1.08,47.9,2022-03-04 10:48:13.889,10
505,10498,0.58,-1.36,-0.8,47.9,2022-03-04 10:48:13.989,10
506,10518,0.38,-1.4,0.91,47.9,2022-03-04 10:48:14.089,10
507,10544,0.55,-1.28,1.22,47.9,2022-03-04 10:48:14.197,10
508,10564,0.66,-1.41,-0.96,46.8,2022-03-04 10:48:14.297,5
509,10584,0.85,-1.28,0.87,46.8,2022-03-04 10:48:14.396,5
510,10604,0.84,-1.21,-0.92,46.8,2022-03-04 10:48:14.495,5
511,10626,0.55,-1.34,0.37,46.8,2022-03-04 10:48:14.594,5
512,10646,1.02,-1.44,-0.87,46.8,2022-03-04 10:48:14.693,5
513,10666,0.75,-1.67,-0.63,46.8,2022-03-04 10:48:14.793,5
514,10686,0.66,-2.08,-0.62,46.8,2022-03-04 10:48:14.893,5
515,10706,0.66,-2.63,-0.73,46.8,2022-03-04 10:48:14.992,5
516,10726,0.71,-2.66,0.54,46.8,2022-03-04 10:48:15.091,5
517,10746,1.02,-2.57,-0.47,46.8,2022-03-04 10:48:15.191,5
518,10770,0.74,-2.63,-0.54,46.8,2022-03-04 10:48:15.289,5
519,10790,0.95,-2.7,-0.39,43.9,2022-03-04 10:48:15.390,5
520,10812,1.02,-2.75,-1.28,43.9,2022-03-04 10:48:15.498,5
521,10832,1.48,-2.53,-0.74,43.9,2022-03-04 10:48:15.587,5
522,10854,1.23,-2.61,-0.65,43.9,2022-03-04 10:48:15.696,5
523,10874,1.07,-2.7,-0.73,43.9,2022-03-04 10:48:15.796,5
524,10894,0.97,-2.59,-0.8,43.9,2022-03-04 10:48:15.894,5
525,10914,0.8,-2.54,0.61,43.9,2022-03-04 10:48:15.993,5
526,10934,0.99,-2.57,-0.94,43.9,2022-03-04 10:48:16.093,5
527,10958,1.08,-2.52,-0.83,43.9,2022-03-04 10:48:16.193,5
528,10978,0.89,-2.48,-0.83,37.4,2022-03-04 10:48:16.292,5
529,10998,1.03,-2.65,-0.66,37.4,2022-03-04 10:48:16.391,5
530,11018,0.7,-2.5,-0.97,37.4,2022-03-04 10:48:16.490,5
531,11040,1.03,-2.37,0.63,37.4,2022-03-04 10:48:16.590,5
532,11062,1.09,-2.53,-0.58,37.4,2022-03-04 10:48:16.699,5
533,11080,0.98,-2.49,-0.62,37.4,2022-03-04 10:48:16.789,5
534,11102,0.6,-2.47,-0.59,37.4,2022-03-04 10:48:16.899,5
535,11122,0.82,-2.54,-1.08,37.4,2022-03-04 10:48:16.996,5
536,11142,0.87,-2.56,-0.59,37.4,2022-03-04 10:48:17.095,5
537,11166,0.67,-2.49,-0.51,37.4,2022-03-04 10:48:17.195,5
538,11186,0.73,-2.33,-0.82,31.0,2022-03-04 10:48:17.294,5
539,11206,0.56,-2.13,0.72,31.0,2022-03-04 10:48:17.393,5
540,11226,0.6,-2.01,-0.8,31.0,2022-03-04 10:48:17.492,5
541,11248,0.74,-2.08,-0.59,31.0,2022-03-04 10:48:17.592,5
542,11268,0.55,-2.04,-0.84,31.0,2022-03-04 10:48:17.691,5
543,11288,-0.29,-1.76,-1.11,31.0,2022-03-04 10:48:17.790,5
544,11308,0.25,-1.35,0.57,31.0,2022-03-04 10:48:17.890,5
545,11328,0.2,-1.4,-0.76,31.0,2022-03-04 10:48:17.989,5
546,11348,0.31,-1.36,-0.67,31.0,2022-03-04 10:48:18.088,5
547,11374,-0.3,-1.3,-0.8,31.0,2022-03-04 10:48:18.198,5
548,11392,0.5,-1.43,0.83,24.8,2022-03-04 10:48:18.286,5
549,11414,0.48,-1.3,-0.78,24.8,2022-03-04 10:48:18.396,5
550,11434,-0.35,-1.2,-0.86,24.8,2022-03-04 10:48:18.495,5
551,11456,0.2,-1.16,-0.55,24.8,2022-03-04 10:48:18.594,5
552,11476,0.33,-1.2,-0.24,24.8,2022-03-04 10:48:18.695,5
553,11496,0.56,-1.25,0.44,24.8,2022-03-04 10:48:18.793,5
554,11516,-0.38,-1.35,-1.11,24.8,2022-03-04 10:48:18.894,5
555,11536,-0.35,-1.26,-0.86,24.8,2022-03-04 10:48:18.992,5
556,11556,0.31,-1.49,-0.68,24.8,2022-03-04 10:48:19.091,5
557,11580,0.28,-1.64,-0.35,24.8,2022-03-04 10:48:19.190,5
558,11602,0.56,-1.84,0.36,20.2,2022-03-04 10:48:19.299,5
559,11622,0.56,-2.01,-0.4,20.2,2022-03-04 10:48:19.398,5
560,11642,0.25,-1.9,-0.45,20.2,2022-03-04 10:48:19.499,5
561,11664,0.44,-1.85,-0.42,20.2,2022-03-04 10:48:19.598,5
562,11684,0.42,-1.75,-0.47,20.2,2022-03-04 10:48:19.697,5
563,11704,0.45,-1.73,-0.33,20.2,2022-03-04 10:48:19.798,5
564,11724,0.27,-1.66,-0.3,20.2,2022-03-04 10:48:19.897,5
565,11744,0.31,-1.51,-0.44,20.2,2022-03-04 10:48:19.994,5
566,11764,0.13,-1.43,-0.37,20.2,2022-03-04 10:48:20.095,5
567,11788,0.28,-1.33,-0.4,20.2,2022-03-04 10:48:20.193,5
568,11808,0.16,-1.13,-0.23,12.2,2022-03-04 10:48:20.291,5
569,11828,0.2,-0.99,-0.33,12.2,2022-03-04 10:48:20.391,5
570,11848,0.23,-0.99,-0.34,12.2,2022-03-04 10:48:20.494,5
571,11870,-0.22,-0.9,-0.29,12.2,2022-03-04 10:48:20.591,5
572,11892,-0.28,-0.75,-0.31,12.2,2022-03-04 10:48:20.699,5
573,11912,-0.18,-0.39,-0.25,12.2,2022-03-04 10:48:20.799,5
574,11932,-0.21,0.38,-0.18,12.2,2022-03-04 10:48:20.898,5
575,11952,-0.21,0.66,0.21,12.2,2022-03-04 10:48:20.997,5
576,11972,-0.23,0.8,-0.2,12.2,2022-03-04 10:48:21.099,5
577,11996,-0.27,0.73,-0.24,12.2,2022-03-04 10:48:21.197,5
578,12016,-0.28,0.76,-0.22,6.8,2022-03-04 10:48:21.298,5
579,12036,-0.35,0.76,0.17,6.8,2022-03-04 10:48:21.398,5
580,12056,-0.28,0.72,-0.29,6.8,2022-03-04 10:48:21.494,5
581,12078,-0.26,0.7,-0.24,6.8,2022-03-04 10:48:21.593,5
582,12098,-0.28,0.67,-0.2,6.8,2022-03-04 10:48:21.692,5
583,12118,-0.22,0.63,-0.24,6.8,2022-03-04 10:48:21.792,5
584,12138,-0.19,0.52,-0.19,6.8,2022-03-04 10:48:21.890,5
585,12160,-0.27,0.5,-0.16,6.8,2022-03-04 10:48:21.999,5
586,12180,-0.35,0.64,-0.27,6.8,2022-03-04 10:48:22.099,5
587,12204,-0.33,0.4,-0.38,6.8,2022-03-04 10:48:22.198,5
588,12224,-0.32,0.78,-0.21,5.0,2022-03-04 10:48:22.298,5
589,12244,-0.26,1.12,-0.29,5.0,2022-03-04 10:48:22.396,5
590,12264,-0.26,1.3,-0.22,5.0,2022-03-04 10:48:22.496,5
591,12286,-0.28,1.22,-0.3,5.0,2022-03-04 10:48:22.596,5
592,12306,-0.4,1.08,-0.49,5.0,2022-03-04 10:48:22.696,5
593,12326,-0.24,0.88,-0.24,5.0,2022-03-04 10:48:22.795,5
594,12346,-0.3,0.86,-0.27,5.0,2022-03-04 10:48:22.895,5
595,12366,-0.2,0.97,-0.27,5.0,2022-03-04 10:48:22.992,5
596,12386,-0.29,0.94,-0.33,5.0,2022-03-04 10:48:23.092,5
597,12410,-0.2,0.88,-0.33,5.0,2022-03-04 10:48:23.190,5
598,12432,-0.28,0.74,-0.33,5.0,2022-03-04 10:48:23.299,5
599,12452,-0.12,0.71,-0.47,5.0,2022-03-04 10:48:23.399,5
600,12472,-0.16,0.69,-0.2,5.0,2022-03-04 10:48:23.499,5
601,12494,-0.24,0.67,0.37,5.0,2022-03-04 10:48:23.598,5
602,12514,-0.16,0.65,-0.26,5.0,2022-03-04 10:48:23.698,5
603,12534,-0.17,0.66,-0.23,5.0,2022-03-04 10:48:23.796,5
604,12554,-0.15,0.61,-0.27,5.0,2022-03-04 10:48:23.897,0
605,12574,-0.13,0.6,-0.38,5.0,2022-03-04 10:48:23.995,0
606,12594,-0.15,0.59,-0.27,5.0,2022-03-04 10:48:24.095,0
607,12610,-0.13,0.51,-0.2,5.0,2022-03-04 10:48:24.170,0
